#time, gyroX[]
27.9231,0.0319579
28.0281,0.0490022
28.1331,0.0490022
28.2381,0.0181095
28.3431,0.00426106
28.4481,0.0181095
28.5531,0.0234358
28.6581,0.0308927
28.7631,0.0340885
28.8681,0.0276969
28.9731,0.072438
29.0781,0.0245011
29.1831,0.0276969
29.2881,0.0266316
29.3931,-0.00745685
29.4981,0.0340885
29.6031,0.0330232
29.7081,0.0330232
29.8131,0.0340885
29.9181,0.0330232
30.0231,0.0340885
30.1281,0.0351537
30.2331,0.0340885
30.3381,0.0340885
30.4431,0.0340885
30.5481,0.0340885
30.6531,0.0330232
30.7581,0.0330232
30.8631,0.0330232
30.9681,0.0340885
31.0731,0.0340885
31.1781,0.0340885
31.2831,0.0340885
31.3881,0.0340885
31.4931,0.0788296
31.5981,-0.0479369
31.7031,0.0276969
31.8081,0.0351537
31.9131,0.036219
32.0181,0.04048
32.1231,0.036219
32.2281,0.0415453
32.3331,0.0287621
32.4381,0.02024
32.5431,0.0340885
32.6481,0.0415453
32.7531,0.0245011
32.8581,0.0255663
32.9631,0.0340885
33.0681,0.0319579
33.1731,0.0340885
33.2781,0.0340885
33.3831,0.0340885
33.4881,0.0340885
33.5931,0.0340885
33.6981,0.0330232
33.8031,0.0340885
33.9081,0.0330232
34.0131,0.0340885
34.1181,0.0340885
34.2231,0.0340885
34.3281,0.0340885
34.4331,0.0351537
34.5381,0.0319579
34.6431,0.0308927
34.7481,0.0287621
34.8531,0.036219
34.9581,0.0351537
35.0631,0.0308927
35.1681,0.0340885
35.2731,0.0276969
35.3781,0.0372843
35.4831,0.0330232
35.5881,0.0340885
35.6931,0.0340885
35.7981,0.0340885
35.9031,0.0340885
36.0081,0.0340885
36.1131,0.0340885
36.2181,0.0330232
36.3231,0.0340885
36.4281,0.0340885
36.5331,0.0340885
36.6381,0.0340885
36.7431,0.0340885
36.8481,0.0340885
36.9531,0.0340885
37.0581,0.0340885
37.1631,0.0340885
37.2681,0.0330232
37.3731,0.0330232
37.4781,0.0340885
37.5831,0.34408
37.6881,0.0106526
37.7931,0.00852212
37.8981,-0.0820254
38.0031,0.0287621
38.1081,0.0990696
38.2131,0.0500674
38.3181,0.0532632
38.4231,0.0447411
38.5281,0.0980043
38.6331,0.0415453
38.7381,0.0447411
38.8431,0.0330232
38.9481,0.0436758
39.0531,0.0511327
39.1581,0.0319579
39.2631,0.0735032
39.3681,0.0671117
39.4731,0.0468716
39.5781,0.0149137
39.6831,0.0213053
39.7881,0.0255663
39.8931,0.0394148
39.9981,0.00426106
40.1031,0.036219
40.2081,0.0106526
40.3131,0.0308927
40.4181,0.00852212
40.5231,0.0319579
40.6281,0.04048
40.7331,-0.00319579
40.8381,0.00958738
40.9431,0.0543285
41.0481,0.0756338
41.1531,0.0330232
41.2581,0.0351537
41.3631,0.0351537
41.4682,0.0340885
41.5731,0.0340885
41.6781,0.0340885
41.8041,0.0340885
41.9091,0.0330232
42.0141,0.0340885
42.1191,0.0340885
42.2241,0.0340885
42.3291,0.0340885
42.4341,0.0340885
42.5391,0.0330232
42.6441,0.0330232
42.7491,0.0340885
42.8541,0.0340885
42.9591,0.0330232
43.0641,0.0340885
43.1691,0.0340885
43.2741,0.0340885
43.3791,0.0330232
43.4841,0.0340885
43.5891,0.0340885
43.6941,0.0340885
43.7991,0.0340885
43.9041,0.0340885
44.0091,0.0340885
44.1141,0.0340885
44.2191,0.0340885
44.3241,0.0330232
44.4291,0.0340885
44.5341,0.0330232
44.6391,0.0340885
44.7441,0.0340885
44.8491,0.0340885
44.9541,0.0330232
45.0591,0.0340885
45.1641,0.0340885
45.2691,0.0340885
45.3741,0.0340885
45.4791,0.0340885
45.5841,0.0340885
45.6891,0.0340885
45.7941,0.0340885
45.8991,0.0340885
46.0041,0.0340885
46.1091,0.0340885
46.2141,0.0330232
46.3191,0.0330232
46.4241,0.0330232
46.5291,0.0340885
46.6341,0.0340885
46.7391,0.0340885
46.8441,0.0340885
46.9491,0.0340885
47.0541,0.0340885
47.1591,0.0340885
47.2641,0.0340885
47.3691,0.0330232
47.4741,0.0340885
47.5791,0.0340885
47.6841,0.0340885
47.7891,0.0340885
47.8941,0.0340885
47.9991,0.0340885
48.1041,0.0340885
48.2091,0.0340885
48.3141,0.0340885
48.4191,0.0340885
48.5241,0.0340885
48.6291,0.0340885
48.7341,0.0340885
48.8391,0.0340885
48.9441,0.0340885
49.0491,0.0340885
49.1541,0.0340885
49.2591,0.0340885
49.3641,0.0340885
49.4691,0.0351537
49.5741,0.0340885
49.6791,0.0340885
49.7841,0.0340885
49.8891,0.0330232
49.9941,0.0340885
50.0991,0.0340885
50.2041,0.0330232
50.3091,0.0330232
50.4141,0.0330232
50.5191,0.0276969
50.6241,0.0319579
50.7291,0.0287621
50.8341,0.0340885
50.9391,0.0447411
51.0441,0.0287621
51.1491,0.0330232
51.2541,0.0330232
51.3591,0.0330232
51.4641,0.0340885
51.5691,0.0330232
51.6741,0.0436758
51.7791,0.0287621
51.8841,0.0308927
51.9891,0.0255663
52.0941,0.0340885
52.1991,0.0340885
52.3041,0.0255663
52.4091,0.0372843
52.5141,0.00106526
52.6191,0.04048
52.7241,0.0340885
52.8291,0.0245011
52.9341,0.036219
53.0391,0.0351537
53.1441,0.0351537
53.2491,0.0319579
53.3541,0.0191748
53.4591,0.0266316
53.5641,0.0330232
53.6691,0.0383495
53.7741,0.0266316
53.8791,0.0298274
53.9841,0.0372843
54.0891,0.0383495
54.1941,0.0319579
54.2991,0.0340885
54.4041,0.0394148
54.5091,0.0340885
54.6141,0.0340885
54.7191,0.0383495
54.8241,0.04048
54.9291,0.0479369
55.0341,0.036219
55.1391,0.0234358
55.2441,0.0319579
55.3491,0.0340885
55.4541,0.0234358
55.5591,0.0340885
55.6641,0.0330232
55.7691,0.0383495
55.8741,0.0308927
55.9791,0.056459
56.0841,0.0596548
56.1891,0.015979
56.2941,0.00213053
56.3991,0.00745685
56.5041,0.04048
56.6091,0.052198
56.7141,0.0319579
56.8191,0.0415453
56.9241,0.0383495
57.0291,0.0170442
57.1341,0.0383495
57.2391,0.0351537
57.3441,0.0617853
57.4491,0.00852212
57.5541,0.0585895
57.6591,0.0223706
57.7641,0.0319579
57.8691,0.0458064
57.9741,0.0351537
58.0791,0.0372843
58.1841,0.0308927
58.2891,0.015979
58.3941,0.04048
58.4991,0.0426106
58.6041,0.0330232
58.7091,0.0351537
58.8141,0.0479369
58.9191,0.0308927
59.0241,0.0287621
59.1291,0.0330232
59.2341,0.0330232
59.3391,0.0351537
59.4441,0.0308927
59.5491,0.0287621
59.6541,0.0340885
59.7591,0.0372843
59.8641,0.0319579
59.9691,0.0330232
60.0741,0.0415453
60.1791,0.0426106
60.2841,0.0319579
60.3891,0.0383495
60.4941,0.0276969
60.5991,0.0426106
60.7041,0.0394148
60.8091,0.0394148
60.9141,0.0319579
61.0191,0.0245011
61.1241,0.0330232
61.2291,0.0330232
61.3341,0.0383495
61.4391,0.0298274
61.5441,0.0383495
61.6491,0.036219
61.7541,0.036219
61.8591,0.0287621
61.9641,0.0372843
62.0691,0.0532632
62.1741,0.0234358
62.2791,0.0511327
62.3841,0.0287621
62.4891,0.0319579
62.5941,0.0298274
62.6991,0.036219
62.8041,0.0308927
62.9091,0.0394148
63.0141,0.0372843
63.1191,0.0340885
63.2241,0.0394148
63.3291,0.0319579
63.4341,0.036219
63.5391,0.0330232
63.6441,0.0308927
63.7491,0.0234358
63.8541,0.0245011
63.9591,0.0255663
64.0641,0.0276969
64.1691,0.02024
64.2741,0.00852212
64.3791,0.0276969
64.4841,0.0340885
64.5891,0.0234358
64.6941,0.0106526
64.7991,0.0436758
64.9041,0.0351537
65.0091,0.0255663
65.1141,0.0245011
65.2191,0.0223706
65.3241,0.0234358
65.4291,0.0181095
65.5341,0.0490022
65.6391,0.0394148
65.7441,0.0149137
65.8491,0.0276969
65.9541,0.0255663
66.0591,0.0479369
66.1641,0.0319579
66.2691,0.00532632
66.3741,0.0245011
66.4792,0.0511327
66.5841,0.0596548
66.6891,0.0511327
66.7941,0.0276969
66.8991,0.0607201
67.0041,0.0703075
67.1091,0.0468716
67.2141,0.0575243
67.3191,0.0245011
67.4241,0.0628506
67.5291,0.12144
67.6341,0.207727
67.7391,0.183225
67.8441,0.036219
67.9491,0.172573
68.0541,0.0948085
68.1591,0.0383495
68.2641,0.0468716
68.3691,0.076699
68.4741,0.0308927
68.5791,0.0575243
68.6841,0.0671117
68.7891,0.052198
68.8941,0.0394148
68.9991,0.036219
69.1041,0.0276969
69.2091,0.0479369
69.3141,-0.00426106
69.4191,-0.036219
69.5241,0.0287621
69.6291,0.0330232
69.7341,0.0149137
69.8391,0.00319579
69.9441,0.015979
70.0491,-0.0149137
70.1541,0.0628506
70.2591,0.0340885
70.3641,0.00213053
70.4691,0.0553938
70.5741,0.0458064
70.6791,0.0372843
70.7841,0.0458064
70.8891,0.0234358
70.9941,0.076699
71.0991,0.0255663
71.2041,0.0447411
71.3091,0.0223706
71.4141,0.052198
71.5191,0.04048
71.6241,0.0117179
71.7291,0.0383495
71.8341,0.0191748
71.9391,0.0479369
72.0441,-0.0255663
72.1491,0.0149137
72.2541,-0.00745685
72.3591,0.0319579
72.4641,0.0383495
72.5691,0.0575243
72.6741,0.0415453
72.7791,0.0372843
72.8841,0.052198
72.9891,0.0191748
73.0941,0.0415453
73.1991,0.0245011
73.3041,0.0340885
73.4091,0.0106526
73.5141,0.00213053
73.6191,0.015979
73.7241,0.0106526
73.8291,0.0468716
73.9341,0.0298274
74.0391,0.0340885
74.1441,-0.0149137
74.2491,0.0372843
74.3541,-0.0170442
74.4591,0.0671117
74.5641,-0.00639159
74.6691,0.0415453
74.7741,-0.02024
74.8791,-0.0255663
74.9841,0.0884169
75.0891,0.0266316
75.1941,0.0181095
75.2991,0.0426106
75.4041,0.0543285
75.5091,0.0585895
75.6141,0.0426106
75.7191,0.0649811
75.8241,0.0948085
75.9291,0.0713727
76.0341,0.0234358
76.1391,0.00852212
76.2441,0.0703075
76.3491,0.171508
76.4541,0.203466
76.5591,0.134223
76.6641,0.18003
76.7691,0.109722
76.8741,0.0692422
76.9791,0.104396
77.0841,0.0490022
77.1891,0.0383495
77.2941,0.0479369
77.3991,0.0106526
77.5041,0.0266316
77.6091,0.0181095
77.7141,0.0617853
77.8191,0.052198
77.9241,0.0479369
78.0291,0.0532632
78.1341,0.0276969
78.2391,0.0234358
78.3441,-0.0191748
78.4491,-0.0181095
78.5541,-0.036219
78.6591,-0.00639159
78.7641,0.0255663
78.8691,0.0596548
78.9741,0.0287621
79.0791,0.0223706
79.1841,0.0607201
79.2891,0.0181095
79.3941,0.0127832
79.4991,0.0181095
79.6041,0.00213053
79.7091,0.0149137
79.8141,0.0479369
79.9191,0.0340885
80.0241,0.0447411
80.1291,0.0287621
80.2341,0.0340885
80.3391,0.0181095
80.4441,0.0245011
80.5491,0.0330232
80.6541,0.00639159
80.7591,0.0351537
80.8641,0.04048
80.9691,0.0266316
81.0741,0.0308927
81.1791,0.02024
81.2841,0.0628506
81.3891,0.0372843
81.4941,0.052198
81.5991,0.0394148
81.7041,0.04048
81.8091,0.0234358
81.9141,0.0479369
82.0191,0.0426106
82.1241,0.0426106
82.2291,0.036219
82.3341,0.0319579
82.4391,0.0213053
82.5441,0.0394148
82.6491,0.0490022
82.7541,0.0287621
82.8591,0.052198
82.9641,0.015979
83.0691,0.0383495
83.1741,0.00958738
83.2791,0.0191748
83.3841,0.0191748
83.4892,0.0703075
83.5941,0.0330232
83.6991,0.0308927
83.8041,0.00958738
83.9091,0.0500674
84.0141,0.0319579
84.1191,0.0479369
84.2241,0.036219
84.3291,0.036219
84.4341,0.0372843
84.5391,0.0298274
84.6441,0.0298274
84.7491,0.0340885
84.8541,0.0276969
84.9591,0.0330232
85.0641,0.0415453
85.1691,0.106526
85.2741,0.0372843
85.3791,-0.0905475
85.4841,-0.00958738
85.5891,-0.0628506
85.6941,-0.056459
85.7991,0.0223706
85.9041,0.0255663
86.0091,0.0287621
86.1141,0.0287621
86.2191,0.0319579
86.3241,0.0287621
86.4291,0.0372843
86.5341,0.0340885
86.6391,0.0330232
86.7441,0.0319579
86.8491,0.0330232
86.9541,0.0319579
87.0591,0.0298274
87.1641,0.0308927
87.2691,0.0308927
87.3741,0.0330232
87.4791,0.0181095
87.5841,0.0447411
87.6891,0.0617853
87.7941,0.0340885
87.8991,0.0383495
88.0041,0.0308927
88.1091,0.036219
88.2141,0.036219
88.3191,0.0234358
88.4241,0.0287621
88.5291,0.0394148
88.6341,0.0383495
88.7391,0.04048
88.8441,0.0351537
88.9491,0.0596548
89.0541,0.0543285
89.1591,0.0585895
89.2641,0.0660464
89.3691,0.0660464
89.4741,0.036219
89.5791,0.0436758
89.6841,0.0553938
89.7891,0.0415453
89.8941,0.02024
89.9991,0.0351537
90.1041,0.0298274
90.2091,0.0276969
90.3141,0.0383495
90.4191,0.0351537
90.5241,0.0383495
90.6291,0.0436758
90.7341,0.0351537
90.8391,0.0308927
90.9441,0.0181095
91.0491,0.0394148
91.1541,0.0223706
91.2591,0.00852212
91.3641,0.0713727
91.4691,0.0490022
91.5741,0.0394148
91.6791,0.0319579
91.7841,0.0319579
91.8891,0.0106526
91.9941,0.0351537
92.0991,0.0213053
92.2041,0.0841559
92.3091,0.0372843
92.4141,0.0223706
92.5191,0.0394148
92.6241,0.0447411
92.7291,0.00426106
92.8341,0.0394148
92.9391,0.0191748
93.0441,0.0447411
93.1491,-0.00639159
93.2541,0.036219
93.3591,0.0628506
93.4641,0.0617853
93.5691,0.04048
93.6741,0.0383495
93.7791,0.0223706
93.8841,0.036219
93.9891,0.0298274
94.0941,0.0308927
94.1991,0.0266316
94.3041,0.0458064
94.4091,-0.00213053
94.5141,0.052198
94.6191,0.0458064
94.7241,0.0245011
94.8291,0.0181095
94.9341,0.0372843
95.0391,0.0351537
95.1441,0.0447411
95.2491,-0.0117179
95.3541,0.0894822
95.4591,0.00532632
95.5641,0.106526
95.6691,0.056459
95.7741,0.0820254
95.8791,0.0149137
95.9841,0.0340885
96.0891,0.0394148
96.1941,0.0553938
96.2991,0.0213053
96.4041,0.0415453
96.5091,0.0596548
96.6141,0.0372843
96.7191,0.0394148
96.8241,0.0436758
96.9291,0.0319579
97.0341,0.0266316
97.1391,0.0255663
97.2441,0.0426106
97.3491,0.00213053
97.4541,0.0340885
97.5591,-0.00213053
97.6641,-0.0223706
97.7691,0.036219
97.8741,-0.0980043
97.9791,0.0958738
98.0841,-0.00319579
98.1891,-0.0330232
98.2941,-0.0170442
98.3991,0.0500674
98.5041,0.0681769
98.6091,0.04048
98.7141,0.107592
98.8191,0.0862864
98.9241,0.0458064
99.0291,0.0266316
99.1341,0.0383495
99.2391,0.0383495
99.3441,0.04048
99.4491,0.0351537
99.5541,0.0308927
99.6591,0.0287621
99.7641,0.036219
99.8691,0.0351537
99.9741,0.0245011
100.079,0.0468716
100.184,0.0447411
100.289,0.0468716
100.394,0.0372843
100.499,0.0319579
100.604,0.04048
100.709,0.0351537
100.814,0.036219
100.919,0.0436758
101.024,0.0308927
101.129,0.0490022
101.234,0.0213053
101.339,0.00319579
101.444,-0.00958738
101.549,0.0181095
101.654,0.0394148
101.759,0.0553938
101.864,0.0191748
101.969,0.0372843
102.074,0.0436758
102.179,0.0394148
102.284,0.0245011
102.389,0.00639159
102.494,0.0319579
102.599,0.0287621
102.704,-0.0149137
102.809,0.0415453
102.914,-0.0308927
103.019,0.00213053
103.124,0.0447411
103.229,0.0553938
103.334,0.0841559
103.439,0.0447411
103.544,0.0479369
103.649,-0.0351537
103.754,-0.0234358
103.859,-0.00426106
103.964,-0.00532632
104.069,-0.0660464
104.174,-0.109722
104.279,0.0266316
104.384,0.0223706
104.489,0.0319579
104.594,0.0394148
104.699,0.0276969
104.804,0.036219
104.909,0.0308927
105.014,0.0340885
105.119,0.036219
105.224,0.0340885
105.329,0.0308927
105.434,0.0394148
105.539,0.052198
105.644,0.0340885
105.749,0.0340885
105.854,0.0340885
105.959,0.0340885
106.064,0.0330232
106.169,0.0330232
106.274,0.0330232
106.379,0.0340885
106.484,0.0340885
106.589,0.0340885
106.694,0.0340885
106.799,0.0330232
106.904,0.0330232
107.009,0.0340885
107.114,0.0340885
107.219,0.0415453
107.324,0.0340885
107.429,0.0330232
107.534,0.0340885
107.639,0.0330232
107.744,0.0340885
107.849,0.0330232
107.954,0.0340885
108.059,0.0351537
108.164,0.0308927
108.269,0.0340885
108.374,0.0340885
108.479,0.0340885
108.584,0.0330232
108.689,0.0415453
108.794,0.0308927
108.899,0.0234358
109.004,0.0383495
109.109,0.0319579
109.214,0.036219
109.319,0.0308927
109.424,0.0330232
109.529,0.0308927
109.634,0.0276969
109.739,0.00532632
109.844,0.0543285
109.949,0.0223706
110.054,0.0245011
110.159,0.036219
110.264,0.0351537
110.369,0.0340885
110.474,0.0340885
110.579,0.0340885
110.684,0.0340885
110.789,0.0340885
110.894,0.0340885
110.999,0.0340885
111.104,0.0330232
111.209,0.0340885
111.314,0.0351537
111.419,0.0340885
111.524,0.0340885
111.629,0.036219
111.734,0.0319579
111.839,0.0287621
111.944,0.0298274
112.049,0.0287621
112.154,0.0308927
112.259,0.0383495
112.364,0.0330232
112.469,0.0351537
112.574,0.0181095
112.679,0.0596548
112.784,0.0298274
112.889,0.0394148
112.994,0.0330232
113.099,0.0330232
113.204,0.0266316
113.309,0.0372843
113.414,0.0298274
113.519,0.0340885
113.624,0.0330232
113.729,0.0351537
113.834,0.0340885
113.939,0.0340885
114.044,0.0308927
114.149,0.0351537
114.254,0.0351537
114.359,0.0319579
114.464,0.0351537
114.569,0.036219
114.674,0.0351537
114.779,0.0319579
114.884,0.0330232
114.989,0.0340885
115.094,0.0340885
115.199,0.0330232
115.304,0.0340885
115.409,0.0351537
115.514,0.0330232
115.619,0.0372843
115.724,0.04048
115.829,0.0287621
115.934,0.0383495
116.039,0.0351537
116.144,0.0308927
116.249,0.0308927
116.354,0.0394148
116.459,0.0436758
116.564,0.0266316
116.669,0.0415453
116.774,0.0308927
116.879,0.0394148
116.984,0.00745685
117.089,0.0617853
117.194,0.0426106
117.299,0.0191748
117.404,0.0351537
117.509,0.0340885
117.614,0.04048
117.719,0.0372843
117.824,0.0298274
117.929,0.0511327
118.034,0.0330232
118.139,0.0266316
118.244,0.0330232
118.349,0.0266316
118.454,0.0394148
118.559,0.0372843
118.664,0.0255663
118.769,0.0383495
118.874,0.0340885
118.979,0.0255663
119.084,0.0436758
119.189,-0.0287621
119.294,0.0351537
119.399,0.0383495
119.504,0.00532632
119.609,0.0383495
119.714,0.0255663
119.819,0.0351537
119.924,0.0426106
120.029,0.0287621
120.134,0.0500674
120.239,0.0255663
120.344,0.0330232
120.449,0.0245011
120.554,0.0127832
120.659,0.0223706
120.764,0.0458064
120.869,0.0298274
120.974,0.0298274
121.079,0.0330232
121.184,0.0426106
121.289,0.0415453
121.394,0.0276969
121.499,0.0479369
121.604,0.0458064
121.709,0.036219
121.814,0.0340885
121.919,0.0415453
122.024,0.0340885
122.129,0.0351537
122.234,0.0319579
122.339,0.0330232
122.444,0.0245011
122.549,0.0319579
122.654,0.0213053
122.759,0.0426106
122.864,0.0245011
122.969,0.0319579
123.074,0.0287621
123.179,0.0436758
123.284,0.0308927
123.389,0.0308927
123.494,0.0308927
123.599,-0.00852212
123.704,0.00958738
123.809,0.00852212
123.914,0.0234358
124.019,0.0585895
124.124,0.0447411
124.229,0.04048
124.334,0.0436758
124.439,0.0181095
124.544,0.0490022
124.649,0.0532632
124.754,0.0223706
124.859,0.0330232
124.964,0.0308927
125.069,0.117179
125.174,0.0788296
125.279,0.0372843
125.384,0.036219
125.489,0.0138484
125.594,0.0351537
125.699,0.0138484
125.804,0.0287621
125.909,0.036219
126.014,0.0287621
126.119,0.0511327
126.224,0.04048
126.329,0.02024
126.434,0.0479369
126.539,0.0308927
126.644,0.0340885
126.749,0.0255663
126.854,0.0330232
126.959,0.0127832
127.064,0.0447411
127.169,0.04048
127.274,0.0383495
127.379,0.04048
127.484,0.0575243
127.589,0.04048
127.694,0.0276969
127.799,0.04048
127.904,0.0372843
128.009,0.00213053
128.114,0.0117179
128.219,0.0170442
128.324,0.0117179
128.429,-0.00426106
128.534,-0.0234358
128.639,0.0234358
128.744,0.0340885
128.849,0.0479369
128.954,0.0383495
129.059,0.0585895
129.164,0.0543285
129.269,0.0340885
129.374,0.052198
129.479,0.072438
129.584,0.0639159
129.689,0.052198
129.794,0.0394148
129.899,0.0170442
130.004,0.0415453
130.109,0.0234358
130.214,0.036219
130.319,0.0319579
130.424,0.036219
130.529,-0.0287621
130.634,0.0490022
130.739,0.0319579
130.844,0.0308927
130.949,0.02024
131.054,0.0276969
131.159,0.0458064
131.264,0.0415453
131.369,0.0191748
131.474,0.0245011
131.579,0.0255663
131.684,0.0532632
131.789,0.0458064
131.894,0.0639159
131.999,0.04048
132.104,0.0490022
132.209,0.0234358
132.314,0.0330232
132.419,0.0351537
132.524,0.0628506
132.629,0.0479369
132.734,0.0511327
132.839,0.0330232
132.944,0.036219
133.049,0.0340885
133.154,0.0553938
133.259,0.0660464
133.364,-0.00426106
133.469,0.0330232
133.574,0.0319579
133.679,0.0330232
133.784,0.0340885
133.889,0.0330232
133.994,0.0340885
134.099,0.0383495
134.204,0.0308927
134.309,0.0351537
134.414,0.0426106
134.519,0.0308927
134.624,0.0117179
134.729,0.0181095
134.834,-0.00106526
134.939,0.0213053
135.044,0.0490022
135.149,0.0276969
135.254,0.0245011
135.359,0.0490022
135.464,0.036219
135.569,0.036219
135.674,0.015979
135.779,0.0596548
135.884,0.0340885
135.989,0.0596548
136.094,0.0276969
136.199,0.0191748
136.304,0.0500674
136.409,0.00532632
136.514,0.0447411
136.619,-0.00532632
136.724,0.00745685
136.829,0.00426106
136.934,0.036219
137.039,0.0607201
137.144,0.0585895
137.249,0.0181095
137.354,0.015979
137.459,0.0298274
137.564,0.0372843
137.669,0.0340885
137.774,0.0223706
137.879,0.0617853
137.984,0.0575243
138.089,0.076699
138.194,0.0596548
138.299,0.0372843
138.404,0.0149137
138.509,0.0340885
138.614,0.0340885
138.719,0.0149137
138.824,-0.0511327
138.929,0.0628506
139.034,0.0234358
139.139,0.0308927
139.244,0.0276969
139.349,0.0149137
139.454,0.0383495
139.559,0.0330232
139.664,0.0245011
139.769,0.00958738
139.874,0.0617853
139.979,0.0735032
140.084,0.0287621
140.189,0.0415453
140.294,0.052198
140.399,0.036219
140.504,0.0298274
140.609,0.036219
140.714,0.0340885
140.819,0.0436758
140.924,0.0394148
141.029,0.036219
141.134,0.0351537
141.239,0.0245011
141.344,0.0266316
141.449,0.02024
141.554,0.0181095
141.659,0.0447411
141.764,0.0394148
141.869,0.052198
141.974,0.0948085
142.079,0.056459
142.184,0.0468716
142.289,0.072438
142.394,0.0745685
142.499,0.0703075
142.604,0.0500674
142.709,0.0415453
142.814,0.0149137
142.919,0.0394148
143.024,0.0511327
143.129,0.04048
143.234,0.0170442
143.339,0.0649811
143.444,0.0255663
143.549,0.0266316
143.654,0.0511327
143.759,0.0276969
143.864,0.0713727
143.969,0.125701
144.074,0.187487
144.179,0.162985
144.284,0.148072
144.389,0.0937433
144.494,0.108657
144.599,0.108657
144.704,0.120375
144.809,0.0958738
144.914,0.0873517
145.019,0.0106526
145.124,0.0181095
145.229,0.0798948
145.334,0.0308927
145.439,0.0458064
145.544,0.0511327
145.649,0.00852212
145.754,0.0319579
145.859,-0.00745685
145.964,0.0830906
146.069,0.0245011
146.174,0.056459
146.279,0.0553938
146.384,0.0532632
146.489,0.00426106
146.594,0.0713727
146.699,0
146.804,0.0255663
146.909,0.00426106
147.014,0.107592
147.119,0.136354
147.224,0.109722
147.329,0.0852212
147.434,0.0276969
147.539,0.0830906
147.644,0.0149137
147.749,0.0394148
147.854,0.00745685
147.959,0.0255663
148.064,0.04048
148.169,0.0426106
148.274,0.0181095
148.379,0.0511327
148.484,0.00532632
148.589,0.0681769
148.694,0.0660464
148.799,0.0553938
148.904,0.0106526
149.009,0.0628506
149.114,0.0245011
149.219,0.0383495
149.324,0.056459
149.429,0.0500674
149.534,0.0628506
149.639,0.0543285
149.744,0.0394148
149.849,0.0735032
149.954,0.0532632
150.059,0.052198
150.164,0.133158
150.269,-0.0415453
150.374,0.0213053
150.479,0.015979
150.584,0.0117179
150.689,-0.0106526
150.794,0.0213053
150.899,0.0266316
151.004,0.00745685
151.109,0.0213053
151.214,0.0255663
151.319,0.0298274
151.424,0.015979
151.529,0.0308927
151.634,-0.0127832
151.739,0.0447411
151.844,-0.015979
151.949,0.0191748
152.054,0.0628506
152.159,0.0458064
152.264,-0.00213053
152.369,-0.00532632
152.474,-0.0490022
152.579,-0.00213053
152.684,0.0276969
152.789,0.00106526
152.894,0.0415453
152.999,0.0255663
153.104,0.00213053
153.209,0.076699
153.314,0.0607201
153.419,0.0862864
153.524,0.0543285
153.629,0.0308927
153.734,0.0330232
153.839,0.0394148
153.944,0.0585895
154.049,0.0479369
154.154,0.102265
154.259,0.0415453
154.364,0.0479369
154.469,0.0447411
154.574,0.0692422
154.679,0.0479369
154.784,0.0181095
154.889,0.015979
154.994,-0.0138484
155.099,0.0841559
155.204,0.02024
155.309,0
155.414,0.0266316
155.519,0.0181095
155.624,0.0308927
155.729,0.0490022
155.834,0.0138484
155.939,0.0383495
156.044,0.0234358
156.149,0.00319579
156.254,0.0255663
156.359,0.00745685
156.464,-0.00639159
156.569,0.0223706
156.674,-0.0330232
156.779,-0.00213053
156.884,0.0756338
156.989,0.0308927
157.094,0.13955
157.199,0.0841559
157.304,0.0777643
157.409,0.0191748
157.514,0.0372843
157.619,0.0479369
157.724,0.0383495
157.829,0.0223706
157.934,0.0426106
158.039,0.0351537
158.144,0.0383495
158.249,0.0191748
158.354,0.0117179
158.459,0.0415453
158.564,0.0511327
158.669,0.0330232
158.774,0.02024
158.879,-0.00106526
158.984,0.0330232
159.089,0.0181095
159.194,0.0351537
159.299,0.0287621
159.404,0.0234358
159.509,0.0372843
159.614,0.0330232
159.719,0.0276969
159.824,0.0458064
159.929,0.0319579
160.034,0.0330232
160.139,0.0298274
160.244,0.0255663
160.349,0.02024
160.454,0.0351537
160.559,0.0319579
160.664,0.0266316
160.769,0.0436758
160.874,0.0138484
160.979,0.0383495
161.084,0.0191748
161.189,0.015979
161.294,0.0394148
161.399,0.0266316
161.504,0.0255663
161.609,0.0276969
161.714,0.036219
161.819,0.056459
161.924,0.0287621
162.029,0.00106526
162.134,0.00319579
162.239,0.0245011
162.344,0.0213053
162.449,0.0298274
162.554,0.0266316
162.659,0.0255663
162.764,0.0266316
162.869,0.00426106
162.974,0.0330232
163.079,0.0298274
163.184,0.02024
163.289,0.0106526
163.394,0.0255663
163.499,0.0372843
163.604,0.0255663
163.709,0.0511327
163.814,0.0553938
163.919,0.0468716
164.024,0.0383495
164.129,0.0298274
164.234,0.0351537
164.339,0.0308927
164.444,0.0458064
164.549,0.0276969
164.654,0.0330232
164.759,0.0308927
164.864,0.04048
164.969,0.04048
165.074,0.0351537
165.179,0.00213053
165.284,0.0170442
165.389,0.0234358
165.494,0.0468716
165.599,0.0553938
165.704,0.0372843
165.809,0.0543285
165.914,0.0468716
166.019,0.0276969
166.124,0.0372843
166.229,0.0308927
166.334,0.0298274
166.439,0.0138484
166.544,0.00745685
166.649,0.0553938
166.754,0.052198
166.859,0.0532632
166.964,0.0596548
167.069,0.0245011
167.174,0.0170442
167.279,-0.00213053
167.384,0.0426106
167.489,0.0223706
167.594,0.02024
167.699,0.04048
167.804,0.0287621
167.909,0.0660464
168.014,0.0607201
168.119,0.0447411
168.224,-0.0181095
168.329,-0.02024
168.434,0.0213053
168.539,0.036219
168.644,0.0223706
168.749,0.0245011
168.854,0.076699
168.959,0.0372843
169.064,0.0340885
169.169,0.036219
169.274,0.0287621
169.379,0.0351537
169.484,0.0319579
169.589,0.0447411
169.694,0.0330232
169.799,0.0543285
169.904,0.0298274
170.009,0.04048
170.114,0.0479369
170.219,0.0458064
170.324,0.036219
170.429,0.04048
170.534,0.0266316
170.639,0.0170442
170.744,0.0308927
170.849,0.0276969
170.954,0.0351537
171.059,0.015979
171.164,0.0500674
171.269,0.0287621
171.374,0.0149137
171.479,0.00426106
171.584,0.0383495
171.689,0.0149137
171.794,0.0117179
171.899,0.015979
172.004,0.02024
172.109,0.0266316
172.214,0.0319579
172.319,0.0266316
172.424,0.0703075
172.529,0.0639159
172.634,0.0468716
172.739,0.0351537
172.844,0.0394148
172.949,0.0479369
173.054,0.0330232
173.159,0.0394148
173.264,0.0383495
173.369,0.0255663
173.474,0.0255663
173.579,0.0308927
173.684,0.0351537
173.789,0.0213053
173.894,0.036219
173.999,0.0298274
174.104,0.0383495
174.209,0.0319579
174.314,0.0276969
174.419,0.0266316
174.524,0.0213053
174.629,0.0287621
174.734,0.0255663
174.839,0.0394148
174.944,0.0532632
175.049,0.0170442
175.154,0.0276969
175.259,0.0415453
175.364,0.0213053
175.469,0.0340885
175.574,-0.0308927
175.679,-0.0191748
175.784,0.0149137
175.889,0.0138484
175.994,0.0575243
176.099,0.0415453
176.204,0.0447411
176.309,0.0340885
176.414,0.0330232
176.519,0.0340885
176.624,0.0276969
176.729,0.0447411
176.834,0.0298274
176.939,0.0308927
177.044,0.0276969
177.149,0.0426106
177.254,0.0575243
177.359,0.0426106
177.464,0.0426106
177.569,0.0181095
177.674,0.00532632
177.779,0.0394148
177.884,0.0351537
177.989,0.036219
178.094,0.0319579
178.199,0.0436758
178.304,0.0308927
178.409,0.0276969
178.514,0.0266316
178.619,0.0223706
178.724,-0.0191748
178.829,0.0319579
178.934,0.0351537
179.039,0.0330232
179.144,0.0330232
179.249,0.036219
179.354,0.0330232
179.459,0.0308927
179.564,0.0276969
179.669,0.0394148
179.774,0.0553938
179.879,0.0490022
179.984,0.0340885
180.089,0.0383495
180.194,0.00532632
180.299,0.0276969
180.404,0.0117179
180.509,0.0234358
180.614,0.0234358
180.719,0.04048
180.824,0.04048
180.929,0.0447411
181.034,0.04048
181.139,0.0308927
181.244,0.0223706
181.349,0.00426106
181.454,0.0276969
181.559,0.0479369
181.664,0.056459
181.769,0.0276969
181.874,0.00532632
181.979,0.036219
182.084,0.0383495
182.189,0.0308927
182.294,0.04048
182.399,0.0266316
182.504,0.0308927
182.609,0.0266316
182.714,0.0255663
182.819,0.04048
182.924,0.0266316
183.029,0.0245011
183.134,0.00745685
183.239,0.0276969
183.344,-0.00532632
183.449,0.0287621
183.554,0.0298274
183.659,0.0127832
183.764,0.0287621
183.869,0.00426106
183.974,0.0649811
184.079,0.0479369
184.184,0.0330232
184.289,0.0436758
184.394,0.0276969
184.499,0.0383495
184.604,0.0340885
184.709,0.0319579
184.814,0.0340885
184.919,0.0266316
185.024,0.04048
185.129,0.0330232
185.234,0.0415453
185.339,0.0351537
185.444,0.0415453
185.549,0.0447411
185.654,0.0490022
185.759,0.0351537
185.864,0.0490022
185.969,0.036219
186.074,0.0340885
186.179,0.02024
186.284,0.00532632
186.389,0.0266316
186.494,0.0351537
186.599,0.0170442
186.704,0.0340885
186.809,0.0436758
186.914,0.0223706
187.019,0.0223706
187.124,0.0319579
187.229,0.0394148
187.334,0.0383495
187.439,0.0340885
187.544,0.0298274
187.649,0.0287621
187.754,0.0223706
187.859,0.0532632
187.964,0.0543285
188.069,0.0351537
188.174,0.0532632
188.279,0.0287621
188.384,0.0479369
188.489,0.0245011
188.594,0.0266316
188.699,0.0490022
188.804,0.0213053
188.909,0.0181095
189.014,0.0351537
189.119,0.0213053
189.224,0.0191748
189.329,0.0276969
189.434,0.00213053
189.539,0.0340885
189.644,0.0372843
189.749,0.00852212
189.854,0.0415453
189.959,0.0394148
190.064,0.0245011
190.169,0.0191748
190.274,0.0223706
190.379,0.0351537
190.484,0.0117179
190.589,0.00639159
190.694,0.0276969
190.799,0.0969391
190.904,0.0830906
191.009,0.036219
191.114,0.0575243
191.219,0.0223706
191.324,0.0426106
191.429,0.0351537
191.534,0.0287621
191.639,0.0330232
191.744,0.0351537
191.849,0.0276969
191.954,0.0351537
192.059,0.0234358
192.164,0.0308927
192.269,0.04048
192.374,0.0330232
192.479,0.0479369
192.584,0.0500674
192.689,0.0383495
192.794,0.0458064
192.899,0.0138484
193.004,0.036219
193.109,0.00745685
193.214,0.00532632
193.319,0.0138484
193.424,0.00745685
193.529,0.00213053
193.634,0.0500674
193.739,0.0436758
193.844,0.00426106
193.949,0.0468716
194.054,0.0500674
194.159,0.0234358
194.264,0.0649811
194.369,0.0255663
194.474,0.00532632
194.579,0.0276969
194.684,-0.00852212
194.789,0.02024
194.894,0.0415453
194.999,0.138484
195.104,0.0777643
195.209,0.0479369
195.314,0.0191748
195.419,0.056459
195.524,0.0777643
195.629,0.123571
195.734,0.267381
195.839,0.278034
195.944,0.414388
196.049,0.298274
196.154,0.0756338
196.259,-0.0372843
196.364,-0.00319579
196.469,0.0191748
196.574,-0.0458064
196.679,-0.26312
196.784,0.0681769
196.889,0.0458064
196.994,0.02024
197.099,0.0191748
197.204,0.0788296
197.309,0.0340885
197.414,0.0447411
197.519,0.0340885
197.624,0.0340885
197.729,0.036219
197.834,-0.00426106
197.939,0.0245011
198.044,0.0213053
198.149,-0.00106526
198.254,0.0394148
198.359,0.0276969
198.464,0.0127832
198.569,0.0117179
198.674,0.0298274
198.779,0.0436758
198.884,0.0596548
198.989,0.0500674
199.094,0.036219
199.199,0.00852212
199.304,0.0245011
199.409,0.036219
199.514,0.0383495
199.619,0.0394148
199.724,0.00426106
199.829,0.0213053
199.934,-0.0106526
200.039,-0.0191748
200.144,0.0468716
200.249,0.174703
200.354,0.076699
200.459,0.0372843
200.564,0.0340885
200.669,0.0351537
200.774,0.0351537
200.879,0.0436758
200.984,0.00958738
201.089,0.0127832
201.194,0.0287621
201.299,0.0511327
201.404,0.04048
201.509,0.0511327
201.614,0.0213053
201.719,0.0245011
201.824,-0.0266316
201.929,0.0383495
202.034,0.0617853
202.139,-0.00106526
202.244,-0.0106526
202.349,0.0585895
202.454,-0.181095
202.559,-0.357929
202.664,0.106526
202.769,0.0575243
202.874,-0.0617853
202.979,0.0308927
203.084,0.00319579
203.189,0.04048
203.294,0.0181095
203.399,0.0287621
203.504,0.0319579
203.609,0.0351537
203.714,0.0330232
203.819,0.0234358
203.924,0.0319579
204.029,0.036219
204.134,0.0372843
204.239,0.0351537
204.344,0.0255663
204.449,0.0383495
204.554,0.0181095
204.659,0.0372843
204.764,0.0372843
204.869,0.0181095
204.974,0.0351537
205.079,0.0266316
205.184,0.0234358
205.289,0.0649811
205.394,0.0213053
205.499,0.0351537
205.604,0.0117179
205.709,0.0447411
205.814,0.0298274
205.919,0.052198
206.024,0.0468716
206.129,0.0223706
206.234,0.0298274
206.339,0.0308927
206.444,0.0319579
206.549,0.0234358
206.654,0.0298274
206.759,0.0436758
206.864,0.0245011
206.969,0.0287621
207.074,0.0319579
207.179,0.0319579
207.284,0.0266316
207.389,0.0234358
207.494,0.0138484
207.599,0.036219
207.704,0.04048
207.809,0.0245011
207.914,0.0181095
208.019,0.0426106
208.124,0.04048
208.229,0.0372843
208.334,0.04048
208.439,0.0276969
208.544,0.036219
208.649,0.0330232
208.754,0.0351537
208.859,0.0330232
208.964,0.036219
209.069,0.0330232
209.174,0.0394148
209.279,0.0340885
209.384,0.0234358
209.489,0.0308927
209.594,0.036219
209.699,0.0308927
209.804,0.0245011
209.909,0.0223706
210.014,0.0330232
210.119,0.0234358
210.224,0.0308927
210.329,0.0255663
210.434,0.0234358
210.539,0.0308927
210.644,0.00532632
210.749,0.0351537
210.854,0.0980043
210.959,0.0511327
211.064,0.0553938
211.169,0.0234358
211.274,0.0458064
211.379,0.0191748
211.484,0.0287621
211.589,0.0372843
211.694,0.0905475
211.799,0.0671117
211.904,0.0511327
212.009,0.0649811
212.114,0.0266316
212.219,0.0383495
212.324,0.0468716
212.429,0.0553938
212.534,0.0372843
212.639,0.0340885
212.744,0.00213053
212.849,0.0298274
212.954,0.0340885
213.059,0.0181095
213.164,0.0394148
213.269,0.0671117
213.374,0.0308927
213.479,0.0298274
213.584,0.0351537
213.689,0.0426106
213.794,0.0458064
213.899,0.0330232
214.004,0.0372843
214.109,0.0308927
214.214,0.0479369
214.319,0.0383495
214.424,0.0372843
214.529,0.0287621
214.634,0.036219
214.739,0.0447411
214.844,0.0308927
214.949,0.0351537
215.054,0.0127832
215.159,0.0553938
215.264,0.0372843
215.369,0.0372843
215.474,-0.00745685
215.579,0.0372843
215.684,0.0340885
215.789,0.0319579
215.894,0.0383495
215.999,0.0340885
216.104,0.0181095
216.209,0.0394148
216.314,0.0330232
216.419,0.0308927
216.524,-0.0426106
216.629,0.0255663
216.734,0.0245011
216.839,0.036219
216.944,0.0415453
217.049,0.0340885
217.154,0.0340885
217.259,0.0117179
217.364,0.0543285
217.469,0.02024
217.574,0.0660464
217.679,0.0820254
217.784,0.0117179
217.889,0.056459
217.994,0.056459
218.099,0.0245011
218.204,0.0330232
218.309,0.0351537
218.414,0.0468716
218.519,0.0266316
218.624,0.0553938
218.729,0.052198
218.834,-0.00106526
218.939,0.0372843
219.044,0.0170442
219.149,0.0830906
219.254,-0.00852212
219.359,-0.0213053
219.464,0.0490022
219.569,0.036219
219.674,0.0330232
219.779,0.0276969
219.884,0.0340885
219.989,0.0340885
220.094,0.0351537
220.199,0.0276969
220.304,0.0319579
220.409,0.0191748
220.514,0.0394148
220.619,0.0213053
220.724,0.0170442
220.829,0.0372843
220.934,0.0479369
221.039,0.0394148
221.144,0.0394148
221.249,0.0266316
221.354,0.0447411
221.459,0.0266316
221.564,0.0287621
221.669,0.0372843
221.774,0.0372843
221.879,0.0330232
221.984,0.0287621
222.089,0.0436758
222.194,0.0351537
222.299,0.0330232
222.404,0.0340885
222.509,0.0287621
222.614,0.0372843
222.719,0.0287621
222.824,0.0319579
222.929,0.0330232
223.034,0.0213053
223.139,0.0319579
223.244,0.0436758
223.349,0.0308927
223.454,0.0138484
223.559,0.0319579
223.664,0.0223706
223.769,0.04048
223.874,0.0394148
223.979,0.0436758
224.084,0.0543285
224.189,0.0351537
224.294,0.0351537
224.399,0.0340885
224.504,0.0340885
224.609,0.0340885
224.714,0.0372843
224.819,0.0372843
224.924,0.0330232
225.029,0.0330232
225.134,0.0319579
225.239,0.0340885
225.344,0.0756338
225.449,0.0628506
225.554,0.0223706
225.659,0.0351537
225.764,0.0330232
225.869,0.0340885
225.974,0.036219
226.079,0.0458064
226.184,0.0319579
226.289,0.0245011
226.394,0.0351537
226.499,0.0330232
226.604,0.0298274
226.709,0.0330232
226.814,0.0340885
226.919,0.0340885
227.024,0.0351537
227.129,0.0351537
227.234,0.0330232
227.339,0.036219
227.444,0.0351537
227.549,0.0340885
227.654,0.0330232
227.759,0.0351537
227.864,0.0351537
227.969,0.0340885
228.074,0.0351537
228.179,0.052198
228.284,0.0468716
228.389,0.0330232
228.494,0.0276969
228.599,-0.00106526
228.704,0.02024
228.809,0.0255663
228.914,0.0276969
229.019,0.0319579
229.124,0.0340885
229.229,0.0351537
229.334,0.036219
229.439,0.0351537
229.544,0.0351537
229.649,0.0351537
229.754,0.0330232
229.859,0.0340885
229.964,0.0372843
230.069,0.0383495
230.174,0.0340885
230.279,0.0319579
230.384,0.0319579
230.489,0.0330232
230.594,0.0330232
230.699,0.0372843
230.804,0.0351537
230.909,0.0319579
231.014,0.0330232
231.119,0.0298274
231.224,0.0330232
231.329,0.0383495
231.434,0.0426106
231.539,0.0607201
231.644,-0.0660464
231.749,0.0170442
231.854,0.0809601
231.959,0.0266316
232.064,0.0500674
232.169,0.0681769
232.274,0.107592
232.379,0.0468716
232.484,0.04048
232.589,0.0543285
232.694,0.0458064
232.799,0.0415453
232.904,0.0511327
233.009,0.0490022
233.114,0.036219
233.219,0.0372843
233.324,0.0543285
233.429,0.0223706
233.534,0.0181095
233.639,0.0287621
233.744,0.0394148
233.849,0.0308927
233.954,0.0245011
234.059,0.0383495
234.164,0.0330232
234.269,0.0447411
234.374,0.0234358
234.479,0.0287621
234.584,0.0340885
234.689,0.0266316
234.794,0.0298274
234.899,0.0372843
235.004,0.0308927
235.109,0.0340885
235.214,0.0340885
235.319,0.0223706
235.424,0.04048
235.529,0.0372843
235.634,0.0298274
235.739,0.0287621
235.844,0.0351537
235.949,0.0500674
236.054,0.0276969
236.159,0.0372843
236.264,0.0319579
236.369,0.0308927
236.474,0.036219
236.579,0.0308927
236.684,0.0500674
236.789,0.0415453
236.894,0.0245011
236.999,0.0340885
237.104,0.0330232
237.209,0.036219
237.314,0.0287621
237.419,0.0319579
237.524,0.0308927
237.629,0.0340885
237.734,0.0351537
237.839,0.036219
237.944,0.036219
238.049,0.0298274
238.154,0.0298274
238.259,0.0372843
238.364,0.036219
238.469,0.0234358
238.574,0.0330232
238.679,0.036219
238.784,0.0415453
238.889,0.0458064
238.994,0.0351537
239.099,0.0308927
239.204,0.036219
239.309,0.0372843
239.414,0.0308927
239.519,0.0127832
239.624,0.015979
239.729,0.0276969
239.834,0.02024
239.939,0.036219
240.044,0.0351537
240.149,0.0287621
240.254,0.0340885
240.359,0.0351537
240.464,0.0415453
240.569,0.0287621
240.674,0.0372843
240.779,0.0383495
240.884,0.0447411
240.989,0.0330232
241.094,0.0340885
241.199,0.0340885
241.304,0.0340885
241.409,0.0351537
241.514,0.0287621
241.619,0.0330232
241.724,-0.056459
241.829,-0.0905475
241.934,0.186421
242.039,0.112918
242.144,0.0383495
242.249,0.0575243
242.354,0.0245011
242.459,0.0713727
242.564,0.052198
242.669,0.234358
242.774,0.164051
242.879,0.116114
242.984,0.0511327
243.089,0.00213053
243.194,-0.2024
243.299,0.0149137
243.404,-0.00106526
243.509,0.0319579
243.614,-0.00106526
243.719,0.00213053
243.824,0.0298274
243.929,0.0394148
244.034,0.0426106
244.139,0.0628506
244.244,0.0255663
244.349,0.0383495
244.454,0.0276969
244.559,0.0415453
244.664,0.0298274
244.769,0.0191748
244.874,0.0340885
244.979,0.04048
245.084,0.0330232
245.189,0.0319579
245.294,0.0372843
245.399,0.0351537
245.504,0.0340885
245.609,0.0436758
245.714,0.0372843
245.819,0.0276969
245.924,0.0234358
246.029,0.0138484
246.134,0.0223706
246.239,0.0351537
246.344,0.0511327
246.449,0.0607201
246.554,0.0500674
246.659,0.0213053
246.764,0.232228
246.869,0.116114
246.974,0.0106526
247.079,0.0149137
247.184,0.0777643
247.289,0.0468716
247.394,0.0532632
247.499,0.0308927
247.604,0.00745685
247.709,-0.0138484
247.814,0.036219
247.919,0.0415453
248.024,0.0266316
248.129,0.0287621
248.234,-0.0426106
248.339,0.0713727
248.444,-0.0798948
248.549,0.112918
248.654,-0.00852212
248.759,0.0213053
248.864,0.0276969
248.969,0.0585895
249.074,0.0287621
249.179,0.0511327
249.284,0.0223706
249.389,0.0213053
249.494,0.100135
249.599,0.0820254
249.704,0.0372843
249.809,0.0234358
249.914,0.0830906
250.019,0.0223706
250.124,0.0830906
250.229,0.0884169
250.334,0.0671117
250.439,0.0170442
250.544,0.0276969
250.649,0.0234358
250.754,0.0553938
250.859,0.0319579
250.964,0.0298274
251.069,0.0276969
251.174,0.015979
251.279,0.0266316
251.384,0.0138484
251.489,0.0138484
251.594,0.0436758
251.699,0.0372843
251.804,0.0223706
251.909,0.0372843
252.014,0.0351537
252.119,0.100135
252.224,0.0809601
252.329,0.0958738
252.434,0.0383495
252.539,0.0181095
252.644,0.015979
252.749,0.0351537
252.854,0.0319579
252.959,0.0298274
253.064,0.072438
253.169,0.0372843
253.274,0.0511327
253.379,0.0607201
253.484,0.0117179
253.589,0.00639159
253.694,-0.0266316
253.799,0.0692422
253.904,0.0308927
254.009,0.0383495
254.114,0.0500674
254.219,-0.0106526
254.324,0.0639159
254.429,0.056459
254.534,-0.0436758
254.639,-0.0117179
254.744,0
254.849,-0.072438
254.954,-0.0170442
255.059,0.0532632
255.164,0.0394148
255.269,0.1012
255.374,0.0756338
255.479,0.0511327
255.584,0.00426106
255.689,0.0703075
255.794,0.120375
255.899,0.0884169
256.004,-0.00852212
256.109,0.0181095
256.214,0.0830906
256.319,0.0553938
256.424,0.0948085
256.529,0.103331
256.634,0.00319579
256.739,0.056459
256.844,0.0447411
256.949,-0.00958738
257.054,0.0181095
257.159,0.00639159
257.264,0.112918
257.369,0.0543285
257.474,0.0234358
257.579,-0.0266316
257.684,0.0543285
257.789,0.0458064
257.894,-0.00958738
257.999,0.0394148
258.104,0.0351537
258.209,0.102265
258.314,0.076699
258.419,-0.0213053
258.524,-0.107592
258.629,0.201335
258.734,0.156594
258.839,0.173638
258.944,0.102265
259.049,0.0532632
259.154,0.056459
259.259,0.205596
259.364,0.00852212
259.469,-0.0330232
259.574,0.0127832
259.679,0.052198
259.784,0.0372843
259.889,0.00958738
259.994,-0.0340885
260.099,-0.0223706
260.204,0.0426106
260.309,0.0436758
260.414,0.052198
260.519,-0.0458064
260.624,0.0308927
260.729,-0.0213053
260.834,-0.0106526
260.939,0.0948085
261.044,0.00213053
261.149,-0.0117179
261.254,0.0138484
261.359,-0.00852212
261.464,0.072438
261.569,-0.0628506
261.674,-0.0681769
261.779,-0.0340885
261.884,0.00958738
261.989,0.0287621
262.094,0.00532632
262.199,0.120375
262.304,-0.0181095
262.409,-0.00745685
262.514,0.117179
262.619,-0.0372843
262.724,0.0234358
262.829,0.0308927
262.934,0.0234358
263.039,0.0756338
263.144,0.144876
263.249,0.108657
263.354,0.00426106
263.459,-0.0319579
263.564,0.0351537
263.669,0.00852212
263.774,0.0276969
263.879,0.00213053
263.984,0.0671117
264.089,0.157659
264.194,0.158724
264.299,0.00213053
264.404,0.0639159
264.509,-0.0181095
264.614,0.02024
264.719,0.0479369
264.824,0.052198
264.929,0.0596548
265.034,0.0958738
265.139,0.0511327
265.244,0.0468716
265.349,-0.00106526
265.454,0.0468716
265.559,0.0809601
265.664,0.0458064
265.769,0.0223706
265.874,0.0234358
265.979,-0.036219
266.084,0.0330232
266.189,0.0117179
266.294,0.0394148
266.399,0.0106526
266.504,0.0298274
266.609,0.0713727
266.714,0.0138484
266.819,0.0330232
266.924,0.00532632
267.029,0.131028
267.134,0.0266316
267.239,0.111853
267.344,-0.02024
267.449,-0.0798948
267.554,0.0735032
267.659,0.0852212
267.764,0.0223706
267.869,-0.0873517
267.974,0.0255663
268.079,0.142745
268.184,0.0809601
268.289,0.0213053
268.394,-0.0383495
268.499,0.076699
268.604,0.02024
268.709,0.0234358
268.814,0.0585895
268.919,0.0426106
269.024,0.0340885
269.129,0.0351537
269.234,0.0330232
269.339,0.0319579
269.444,0.0330232
269.549,0.0308927
269.654,0.0319579
269.759,0.0330232
269.864,0.0298274
269.969,0.0170442
270.074,0.0308927
270.179,0.0447411
270.284,0.0340885
270.389,0.0245011
270.494,0.0319579
270.599,0.0138484
270.704,0.0170442
270.809,0.0266316
270.914,0.0340885
271.019,0.04048
271.124,0.0458064
271.229,0.0500674
271.334,0.076699
271.439,0.04048
271.544,0.0660464
271.649,0.0553938
271.754,0.0255663
271.859,0.0255663
271.964,0.0276969
272.069,0.036219
272.174,0.0298274
272.279,0.0319579
272.384,0.0245011
272.489,0.0287621
272.594,0.0276969
272.699,0.0298274
272.804,0.0298274
272.909,0.0330232
273.014,0.0340885
273.119,0.0330232
273.224,0.0340885
273.329,0.0340885
273.434,0.0351537
273.539,0.0330232
273.644,0.0330232
273.749,0.0298274
273.854,0.0330232
273.959,0.0308927
274.064,0.0319579
274.169,0.0287621
274.274,0.0308927
274.379,0.0308927
274.484,0.0298274
274.589,0.0298274
274.694,0.0308927
274.799,0.0330232
274.904,0.0330232
275.009,0.0340885
275.114,0.0330232
275.219,0.0319579
275.324,0.0330232
275.429,0.0330232
275.534,0.0340885
275.639,0.0340885
275.744,0.0340885
275.849,0.0340885
275.954,0.0330232
276.059,0.0340885
276.164,0.0330232
276.269,0.0330232
276.374,0.0330232
276.479,0.0330232
276.584,0.0340885
276.689,0.0340885
276.794,0.0340885
276.899,0.0340885
277.004,0.0330232
277.109,0.0340885
277.214,0.0340885
277.319,0.0340885
277.424,0.0340885
277.529,0.0340885
277.634,0.0330232
277.739,0.0308927
277.844,0.0330232
277.949,0.036219
278.054,0.0351537
278.159,0.0351537
278.264,0.0340885
278.369,0.036219
278.474,0.0383495
278.579,0.0372843
278.684,0.036219
278.789,0.0330232
278.894,0.0340885
278.999,0.0340885
279.104,0.0351537
279.209,0.0330232
279.314,0.0340885
279.419,0.0340885
279.524,0.0340885
279.629,0.0340885
279.734,0.0340885
279.839,0.0340885
279.944,0.0340885
280.049,0.0340885
280.154,0.0340885
280.259,0.0330232
280.364,0.0330232
280.469,0.0319579
280.574,0.0319579
280.679,0.0308927
280.784,0.0308927
280.889,0.0319579
280.994,0.0319579
281.099,0.0330232
281.204,0.036219
281.309,0.0596548
281.414,0.0788296
281.519,0.0798948
281.624,0.0298274
281.729,0.0340885
281.834,0.0340885
281.939,0.0340885
282.044,0.0340885
282.149,0.0340885
282.254,0.0330232
282.359,0.0340885
282.464,0.0330232
282.569,0.0340885
282.674,0.0351537
282.779,0.0330232
282.884,0.0340885
282.989,0.0340885
283.094,0.0340885
283.199,0.0340885
283.304,0.0340885
283.409,0.0340885
283.514,0.0340885
283.619,0.0330232
283.724,0.0340885
283.829,0.0340885
283.934,0.0340885
284.039,0.0340885
284.144,0.0340885
284.249,0.0340885
284.354,0.0340885
284.459,0.0330232
284.564,0.0340885
284.669,0.0340885
284.774,0.0340885
284.879,0.0330232
284.984,0.0340885
285.089,0.0340885
285.194,0.0330232
285.299,0.0330232
285.404,0.0340885
285.509,0.0340885
285.614,0.0330232
285.719,0.0340885
285.824,0.0340885
285.929,0.0340885
286.034,0.0340885
286.139,0.0340885
286.244,0.0340885
286.349,0.0340885
286.454,0.0340885
286.559,0.0340885
286.664,0.0330232
286.769,0.0340885
286.874,0.0340885
286.979,0.0340885
287.084,0.0340885
287.189,0.0340885
287.294,0.0340885
287.399,0.0340885
287.504,0.0340885
287.609,0.0340885
287.714,0.0330232
287.819,0.0340885
287.924,0.0340885
288.029,0.0340885
288.134,0.0340885
288.239,0.0340885
288.344,0.0340885
288.449,0.0340885
288.554,0.0330232
288.659,0.0340885
288.764,0.0340885
288.869,0.0340885
288.974,0.0340885
289.079,0.0340885
289.184,0.0340885
289.289,0.0340885
289.394,0.0330232
289.499,0.0340885
289.604,0.0340885
289.709,0.0340885
289.814,0.0340885
289.919,0.0340885
290.024,0.0340885
290.129,0.0340885
290.234,0.0340885
290.339,0.0330232
290.444,0.0340885
290.549,0.0330232
290.654,0.0340885
290.759,0.0340885
290.864,0.0340885
290.969,0.0330232
291.074,0.0340885
291.179,0.0340885
291.284,0.0340885
291.389,0.0340885
291.494,0.0340885
291.599,0.0340885
291.704,0.0340885
291.809,0.0340885
291.914,0.0340885
292.019,0.0340885
292.124,0.0340885
292.229,0.0330232
292.334,0.0340885
292.439,0.0340885
292.544,0.0340885
292.649,0.0330232
292.754,0.0340885
292.859,0.0340885
292.964,0.0340885
293.069,0.0340885
293.174,0.0340885
293.279,0.0340885
293.384,0.0340885
293.489,0.0340885
293.594,0.0340885
293.699,0.0340885
293.804,0.0330232
293.909,0.0340885
294.014,0.0340885
294.119,0.0330232
294.224,0.0340885
294.329,0.0340885
294.434,0.0340885
294.539,0.0340885
294.644,0.0340885
294.749,0.0340885
294.854,0.0330232
294.959,0.0340885
295.064,0.0340885
295.169,0.0340885
295.274,0.0340885
295.379,0.0340885
295.484,0.0340885
295.589,0.0340885
295.694,0.0340885
295.799,0.0340885
295.904,0.0351537
296.009,0.0330232
296.114,0.0340885
296.219,0.0340885
296.324,0.0340885
296.429,0.0330232
296.534,0.0340885
296.639,0.0340885
296.744,0.0340885
296.849,0.0340885
296.954,0.0330232
297.059,0.0340885
297.164,0.0340885
297.269,0.0330232
297.374,0.0340885
297.479,0.0340885
297.584,0.0330232
297.689,0.0340885
297.794,0.0340885
297.899,0.0340885
298.004,0.0340885
298.109,0.0340885
298.214,0.0340885
298.319,0.0340885
298.424,0.0340885
298.529,0.0330232
298.634,0.0340885
298.739,0.0330232
298.844,0.0340885
298.949,0.0351537
299.054,0.0330232
299.159,0.0340885
299.264,0.0330232
299.369,0.0340885
299.474,0.0340885
299.579,0.0340885
299.684,0.0340885
299.789,0.0340885
299.894,0.0340885
299.999,0.0330232
300.104,0.0330232
300.209,0.0340885
300.314,0.0340885
300.419,0.0340885
300.524,0.0340885
300.629,0.0340885
300.734,0.0340885
300.839,0.0340885
300.944,0.0340885
301.049,0.0340885
301.154,0.0340885
301.259,0.0340885
301.364,0.0340885
301.469,0.0340885
301.574,0.0340885
301.679,0.0340885
301.784,0.0351537
301.889,0.0340885
301.994,0.0340885
302.099,0.0340885
302.204,0.0330232
302.309,0.0340885
302.414,0.0340885
302.519,0.0340885
302.624,0.0330232
302.729,0.0340885
302.834,0.0340885
302.939,0.0340885
303.044,0.0330232
303.149,0.0340885
303.254,0.0340885
303.359,0.0340885
303.464,0.0340885
303.569,0.0330232
303.674,0.0340885
303.779,0.0340885
303.884,0.0340885
303.989,0.0340885
304.094,0.0340885
304.199,0.0340885
304.304,0.0340885
304.409,0.0340885
304.514,0.0340885
304.619,0.0340885
304.724,0.0340885
304.829,0.0340885
304.934,0.0340885
305.039,0.0340885
305.144,0.0340885
305.249,0.0340885
305.354,0.0330232
305.459,0.0340885
305.564,0.0340885
305.669,0.0340885
305.774,0.0340885
305.879,0.0340885
305.984,0.0340885
306.089,0.0340885
306.194,0.0330232
306.299,0.0340885
306.404,0.0340885
306.509,0.0340885
306.614,0.0340885
306.719,0.0340885
306.824,0.0340885
306.929,0.0340885
307.034,0.0340885
307.139,0.0340885
307.244,0.0330232
307.349,0.0340885
307.454,0.0351537
307.559,0.0340885
307.664,0.0340885
307.769,0.0340885
307.874,0.0340885
307.979,0.0340885
308.084,0.0340885
308.189,0.0340885
308.294,0.0340885
308.399,0.0340885
308.504,0.0340885
308.609,0.0330232
308.714,0.0340885
308.819,0.0330232
308.924,0.0340885
309.029,0.0340885
309.134,0.0340885
309.239,0.0340885
309.344,0.0330232
309.449,0.0340885
309.554,0.0351537
309.659,0.0340885
309.764,0.0340885
309.869,0.0340885
309.974,0.0340885
310.079,0.0340885
310.184,0.0340885
310.289,0.0340885
310.394,0.0340885
310.499,0.0340885
310.604,0.0340885
310.709,0.0340885
310.814,0.0340885
310.919,0.0340885
311.024,0.0340885
311.129,0.0340885
311.234,0.0340885
311.339,0.0340885
311.444,0.0340885
311.549,0.0340885
311.654,0.0340885
311.759,0.0340885
311.864,0.0340885
311.969,0.0340885
312.074,0.0340885
312.179,0.0340885
312.284,0.0351537
312.389,0.0340885
312.494,0.0340885
312.599,0.0330232
312.704,0.0340885
312.809,0.0340885
312.914,0.0340885
313.019,0.0340885
313.124,0.0330232
313.229,0.0340885
313.334,0.0340885
313.439,0.0340885
313.544,0.0340885
313.649,0.0351537
313.754,0.0340885
313.859,0.0330232
313.964,0.0340885
314.069,0.0330232
314.174,0.0340885
314.279,0.0340885
314.384,0.0340885
314.489,0.0340885
314.594,0.0330232
314.699,0.0340885
314.804,0.0330232
314.909,0.0340885
315.014,0.0340885
315.119,0.0340885
315.224,0.0340885
315.329,0.0351537
315.434,0.0340885
315.539,0.0340885
315.644,0.0340885
315.749,0.0340885
315.854,0.0340885
315.959,0.0340885
316.064,0.0340885
316.169,0.0340885
316.274,0.0340885
316.379,0.0340885
316.484,0.0340885
316.589,0.0340885
316.694,0.0340885
316.799,0.0340885
316.904,0.0340885
317.009,0.0330232
317.114,0.0340885
317.219,0.0340885
317.324,0.0330232
317.429,0.0340885
317.534,0.0340885
317.639,0.0340885
317.744,0.0340885
317.849,0.0340885
317.954,0.0340885
318.059,0.0340885
318.164,0.0340885
318.269,0.0340885
318.374,0.0340885
318.479,0.0340885
318.584,0.0340885
318.689,0.0340885
318.794,0.0330232
318.899,0.0340885
319.004,0.0340885
319.109,0.0340885
319.214,0.0340885
319.319,0.0340885
319.424,0.0340885
319.529,0.0340885
319.634,0.0340885
319.739,0.0340885
319.844,0.0330232
319.949,0.0330232
320.054,0.0340885
320.159,0.0340885
320.264,0.0340885
320.369,0.0340885
320.474,0.0340885
320.579,0.0330232
320.684,0.0330232
320.789,0.0340885
320.894,0.0340885
320.999,0.0351537
321.104,0.0351537
321.209,0.0340885
321.314,0.0340885
321.419,0.0340885
321.524,0.0340885
321.629,0.0340885
321.734,0.0340885
321.839,0.0340885
321.944,0.0330232
322.049,0.0340885
322.154,0.0340885
322.259,0.0340885
322.364,0.0330232
322.469,0.0340885
322.574,0.0330232
322.679,0.0330232
322.784,0.0340885
322.889,0.0340885
322.994,0.0330232
323.099,0.0340885
323.204,0.0351537
323.309,0.0351537
323.414,0.0319579
323.519,0.0340885
323.624,0.0351537
323.729,0.0340885
323.834,0.0340885
323.939,0.0308927
324.044,0.0330232
324.149,0.0340885
324.254,-0.0671117
324.359,0
324.464,-0.0213053
324.569,-0.0383495
324.674,0.0798948
324.779,0.0436758
324.884,0.0639159
324.989,-0.0266316
325.094,-0.0266316
325.199,-0.127832
325.304,-0.198139
325.409,-0.129962
325.514,-0.015979
325.619,0.131028
325.724,-0.0191748
325.829,-0.144876
325.934,-0.259925
326.039,-0.379234
326.144,0.174703
326.249,0.300405
326.354,0.331297
326.459,0.233293
326.564,0.406931
326.669,0.219444
326.774,-0.0372843
326.879,-0.250337
326.984,-0.475108
327.089,-0.864995
327.194,-1.02265
327.299,-1.47646
327.404,-0.895887
327.509,0.0862864
327.614,1.59044
327.719,1.25488
327.824,1.01307
327.929,0.801079
328.034,0.780839
328.139,0.578439
328.244,0.213053
328.349,1.52439
328.454,2.22108
328.559,0.26099
328.664,-0.644485
328.769,-0.74462
328.874,0.269512
328.979,1.78432
329.084,0.782969
329.189,0.213053
329.294,0.412257
329.399,0.309992
329.504,-0.386691
329.609,-0.385626
329.714,-0.50387
329.819,-0.811732
329.924,-1.21973
330.029,-0.475108
330.134,-0.374973
330.239,-0.203466
330.344,-2.13586
330.449,-2.73986
330.554,-2.71216
330.659,-1.90256
330.764,-2.4288
330.869,-2.85278
330.974,-3.0914
331.079,-2.31482
331.184,-1.15155
331.289,-0.919323
331.394,-0.852212
331.499,-1.1867
331.604,-1.19736
331.709,-1.00774
331.814,-0.716923
331.919,-0.203466
332.024,0.259925
332.129,0.482565
332.234,0.648746
332.339,0.818123
332.444,0.632767
332.549,-0.307861
332.654,-0.475108
332.759,-0.0298274
332.864,0.452737
332.969,0.6839
333.074,1.04715
333.179,1.14836
333.284,0.992826
333.389,0.680704
333.494,0.419714
333.599,0.336624
333.704,0.0649811
333.809,-0.207727
333.914,-0.559264
334.019,-0.918258
334.124,-1.20375
334.229,-1.33052
334.334,-1.14942
334.439,-1.15155
334.544,-0.941694
334.649,-0.526241
334.754,-0.171508
334.859,0.558199
334.964,1.061
335.069,1.33797
335.174,1.4445
335.279,1.61494
335.384,1.42745
335.489,1.1899
335.594,0.903344
335.699,0.485761
335.804,0.092678
335.909,-0.396278
336.014,-0.968325
336.119,-1.45302
336.224,-1.61707
336.329,-1.51374
336.434,-1.29536
336.539,-1.29643
336.644,-1.15581
336.749,-0.78723
336.854,-0.343015
336.959,-0.237554
337.064,-0.380299
337.169,-0.613592
337.274,-0.0703075
337.379,0.0905475
337.484,-0.208792
337.589,0.072438
337.694,0.561394
337.799,1.27512
337.904,1.87806
338.009,2.25836
338.114,2.12307
338.219,1.75129
338.324,1.40082
338.429,0.918258
338.534,0.206661
338.639,-0.725445
338.744,-1.73212
338.849,-1.54357
338.954,-1.77686
339.059,-0.72438
339.164,-0.975782
339.269,-1.48391
339.374,-1.79284
339.479,-0.862864
339.584,-1.23251
339.689,-0.318514
339.794,0.629571
339.899,2.56196
340.004,3.82217
340.109,4.7841
340.214,4.48476
340.319,2.51615
340.424,2.13799
340.529,1.70442
340.634,1.18457
340.739,-0.363255
340.844,-1.27619
340.949,-1.01733
341.054,-0.173638
341.159,0.646616
341.264,0.520914
341.369,0.936367
341.474,0.781904
341.579,0.464455
341.684,-0.479369
341.789,-1.51374
341.894,-1.76408
341.999,-1.47113
342.104,-1.48498
342.209,-1.33052
342.314,-0.736098
342.419,-0.133158
342.524,0.280165
342.629,0.631702
342.734,0.423975
342.839,0.60294
342.944,0.470847
343.049,-0.296144
343.154,-1.65649
343.259,-1.07911
343.364,-0.459129
343.469,-1.21014
343.574,-2.06129
343.679,-2.26795
343.784,-2.06661
343.889,-1.34436
343.994,-0.836233
344.099,-0.762729
344.204,-0.877778
344.309,-0.103331
344.414,-0.437824
344.519,-0.319579
344.624,-0.0713727
344.729,-0.0617853
344.834,-0.275903
344.939,-0.227967
345.044,0.135289
345.149,0.466586
345.254,0.964064
345.359,1.2176
345.464,1.04502
345.569,0.670051
345.674,0.272708
345.779,-0.0223706
345.884,0.0117179
345.989,-0.203466
346.094,0.936367
346.199,0.857538
346.304,0.306796
346.409,0.628506
346.514,2.39152
346.619,3.4962
346.724,2.97848
346.829,1.85143
346.934,1.34969
347.039,0.780839
347.144,-0.148072
347.249,-1.33797
347.354,-2.49485
347.459,-3.10098
347.564,-3.01896
347.669,-2.81656
347.774,-2.68127
347.879,-2.06661
347.984,-1.10894
348.089,-0.201335
348.194,0.407996
348.299,-0.072438
348.404,-0.572047
348.509,-0.468716
348.614,-0.447411
348.719,0.133158
348.824,0.591222
348.929,1.36993
349.034,2.0485
349.139,2.20084
349.244,1.90895
349.349,1.66714
349.454,1.25488
349.559,1.04076
349.664,0.597613
349.769,0.092678
349.874,1.78219
349.979,2.00483
350.084,1.4903
350.189,1.83332
350.294,1.975
350.399,1.64264
350.504,1.15581
350.609,0.609331
350.714,0.329167
350.819,-0.0788296
350.924,-1.35608
351.029,-2.34997
351.134,-2.22747
351.239,-3.37795
351.344,-4.5572
351.449,-4.96626
351.554,-4.17797
351.659,-3.09033
351.764,-3.02429
351.869,-2.1039
351.974,-0.479369
352.079,-0.193878
352.184,0.495348
352.289,0.533697
352.394,-0.131028
352.499,-0.34195
352.604,-0.490022
352.709,-0.488956
352.814,-0.316384
352.919,-0.24075
353.024,-0.128897
353.129,0.38456
353.234,0.420779
353.339,-0.871386
353.444,-0.0628506
353.549,0.26099
353.654,0.570982
353.759,0.592287
353.864,0.54435
353.969,0.894822
354.074,1.1164
354.179,1.2943
354.284,1.14622
354.389,0.769121
354.494,-0.731837
354.599,-2.00802
354.704,-3.16597
354.809,-3.54307
354.914,-3.28101
355.019,-2.83041
355.124,-2.71536
355.229,-3.28101
355.334,-4.46772
355.439,-5.43924
355.544,-4.95348
355.649,-3.56224
355.754,-2.52042
355.859,-2.03359
355.964,-2.38406
356.069,-2.39365
356.174,0.882039
356.279,0.893757
356.384,0.594418
356.489,-0.437824
356.594,0.428236
356.699,0.230097
356.804,-0.0127832
356.909,-0.158724
357.014,-0.300405
357.119,0.198139
357.224,1.63944
357.329,-0.64555
357.434,-1.99524
357.539,-2.32547
357.644,-2.58966
357.749,-2.86769
357.854,-2.84319
357.959,-1.4658
358.064,-1.37419
358.169,-2.27754
358.274,-3.21923
358.379,-3.82963
358.484,-3.34493
358.589,-2.32973
358.694,-1.74064
358.799,-1.12172
358.904,-0.76486
359.009,-0.940629
359.114,-1.10148
359.219,-1.19629
359.324,-1.3678
361.012,-0.0607201
361.117,-0.682835
361.222,-0.393083
361.327,-3.52922
361.432,-4.67758
361.537,-3.86691
361.642,-1.31134
361.747,-0.218379
361.852,-0.474043
361.957,-1.15901
362.062,-1.24956
362.167,-0.72438
362.272,0.689226
362.377,0.348341
362.482,0.398409
362.587,0.247141
362.692,-1.01626
362.797,-0.614658
362.902,0.0532632
363.007,-0.2024
363.112,-0.172573
363.217,0.115049
363.322,-0.04048
363.427,-0.100135
363.532,-0.168312
363.637,-0.153398
363.742,-0.294013
363.847,0.352603
363.952,0.245011
364.057,-0.206661
364.162,-0.38456
364.267,-0.113983
364.372,-0.390952
364.477,0.0298274
364.582,0.297209
364.687,-0.11931
364.792,-0.0937433
364.897,-0.34195
365.002,-0.436758
365.107,-0.00639159
365.212,-0.203466
365.317,0.219444
365.422,0.164051
365.527,-0.396278
365.632,-0.318514
365.737,0.16192
365.842,0.24288
365.947,-0.176834
366.052,-0.287621
366.157,-0.168312
366.262,-0.145941
366.367,0.205596
366.472,0.0916127
366.577,-0.111853
366.682,0.102265
366.787,-0.0830906
366.892,-0.247141
366.997,-0.204531
367.102,-0.0276969
367.207,-0.0276969
367.312,0.103331
367.417,0.0798948
367.522,-0.0106526
367.627,-0.0639159
367.732,0.0127832
367.837,0.0681769
367.942,-0.0149137
368.047,0.0117179
368.152,0.0596548
368.257,0.113983
368.362,0.0788296
368.467,-0.0660464
368.572,0.0298274
368.677,-0.0948085
368.782,-0.0447411
368.887,0.138484
368.992,0.225836
369.097,-0.0958738
369.202,-0.511327
369.307,-0.0575243
369.412,-0.0255663
369.517,0.18216
369.622,0.199204
369.727,0.354733
369.832,-0.0958738
369.937,-0.305731
370.042,-0.00532632
370.147,-0.44315
370.252,-0.204531
370.357,0.353668
370.462,0.22051
370.567,0.0713727
370.672,0.18216
370.777,0.282295
370.882,0.339819
370.987,0.0500674
371.092,-0.454868
371.197,0.0841559
371.302,-0.0543285
371.407,0.160855
371.512,0.434628
371.617,0.215183
371.722,0.399474
371.827,-0.662594
371.932,0.0841559
372.037,0.0884169
372.142,0.432497
372.247,0.376038
372.352,-0.296144
372.457,-0.334493
372.562,0.0447411
372.667,0.943824
372.772,0.859668
372.877,-0.657268
372.982,-0.653007
373.087,0.0745685
373.192,0.291882
373.297,0.329167
373.402,-0.0117179
373.507,0.0830906
373.612,0.370712
373.717,-0.294013
373.822,-0.44315
373.927,-0.419714
374.032,0.150202
374.137,0.774447
374.242,0.836233
374.347,0.445281
374.452,0.072438
374.557,0.0245011
374.662,-0.0458064
374.767,-0.22264
374.872,0.0649811
374.977,0.13955
375.082,-0.0916127
375.187,0.15979
375.292,0.586961
375.397,0.238619
375.502,-0.0447411
375.607,-0.0276969
375.712,0.0170442
375.817,0.052198
375.922,0.188552
376.027,0.361125
376.132,0.580569
376.237,0.265251
376.342,0.12144
376.447,0.0490022
376.552,-0.184291
376.657,-0.174703
376.762,-0.178964
376.867,0.158724
376.972,0.188552
377.077,0.44315
377.182,0.630637
377.287,0.092678
377.392,0.0873517
377.497,0.20027
377.602,-0.0468716
377.707,0.176834
377.812,0.22051
377.917,0.432497
378.022,0.588026
378.127,-0.0234358
378.232,-0.165116
378.337,0.295078
378.442,0.891626
378.547,1.42639
378.652,-0.300405
378.757,-0.581634
378.862,-0.18003
378.967,0.0255663
379.072,0.143811
379.177,-0.0149137
379.282,-0.177899
379.387,0.0660464
379.492,0.416518
379.597,0.486826
379.702,0.712662
379.807,0.36219
379.912,0.20027
380.017,-0.0213053
380.122,0.223706
380.227,0.190682
380.332,0.0937433
380.437,0.3036
380.542,0.217314
380.647,-0.0117179
380.752,-0.0191748
380.857,0.110788
380.962,0.26312
381.067,0.432497
381.172,0.551807
381.277,0.541154
381.382,0.374973
381.487,0.0468716
381.592,-0.0149137
381.697,-0.0127832
381.802,0.00958738
381.907,0.671117
382.012,0.438889
382.117,0.186421
382.222,-0.131028
382.327,-0.400539
382.432,0.601874
382.537,0.721184
382.642,0.520914
382.747,0.518784
382.852,0.369647
382.957,0.304666
383.062,0.052198
383.167,0.302535
383.272,0.280165
383.377,0.164051
383.482,0.329167
383.587,0.407996
383.692,0.296144
383.797,0.246076
383.902,0.118244
384.007,0.383495
384.112,0.350472
384.217,0.348341
384.322,0.519849
384.427,0.349407
384.532,0.419714
384.637,0.0958738
384.742,0.417584
384.847,0.696683
384.952,0.32384
385.057,0.274838
385.162,0.239685
385.267,0.295078
385.372,0.273773
385.477,0.227967
385.582,0.54435
385.687,0.990696
385.792,0.365386
385.897,-0.0330232
386.002,0.151268
386.107,0.353668
386.212,0.676443
386.317,0.861799
386.422,0.00426106
386.527,-0.0319579
386.632,-0.407996
386.737,0.626375
386.842,1.67673
386.947,0.0255663
387.052,0.90654
387.157,0.762729
387.262,-0.793622
387.367,0.569916
387.472,0.206661
387.577,0.70414
387.682,0.999218
387.787,0.829841
387.892,0.123571
387.997,0.0703075
388.102,0.508131
388.207,0.809601
388.312,0.167247
388.417,-0.0468716
388.522,0.655138
388.627,0.840494
388.732,-nan
