#time, gyroX[]
27.9011,0.0372843
28.0061,0.0298274
28.1111,0.0330232
28.2161,0.0415453
28.3211,0.0298274
28.4261,0.0351537
28.5311,0.0458064
28.6361,0.0319579
28.7411,0.0340885
28.8461,0.0383495
28.9511,0.0383495
29.0561,0.0308927
29.1611,0.036219
29.2661,0.0372843
29.3711,0.0287621
29.4761,0.0340885
29.5811,0.0330232
29.6861,0.04048
29.7911,0.036219
29.8961,0.0351537
30.0011,0.0340885
30.1061,0.0255663
30.2111,0.0340885
30.3161,0.0351537
30.4211,0.0287621
30.5261,0.0319579
30.6311,0.0372843
30.7361,0.04048
30.8411,0.0383495
30.9461,0.0330232
31.0511,0.0394148
31.1561,0.0436758
31.2611,0.0351537
31.3661,0.0340885
31.4711,0.0319579
31.5761,0.0319579
31.6811,0.0319579
31.7861,0.296144
31.8911,0.0266316
31.9961,0.0340885
32.1011,0.0298274
32.2061,0.0287621
32.3111,0.02024
32.4161,0.0191748
32.5211,0.052198
32.6261,0.0553938
32.7311,0.0276969
32.8361,-0.00745685
32.9411,0.0372843
33.0461,0.0372843
33.1511,0.0468716
33.2561,0.0340885
33.3611,0.0340885
33.4661,0.0340885
33.5711,0.0372843
33.6761,0.0436758
33.7811,0.0585895
33.8861,0.0351537
33.9911,0.0308927
34.0961,0.0351537
34.2011,0.036219
34.3061,0.0255663
34.4111,0.0298274
34.5161,0.0340885
34.6211,0.0330232
34.7261,0.0308927
34.8311,0.0500674
34.9361,0.0245011
35.0411,0.0266316
35.1461,0.0511327
35.2511,0.0308927
35.3561,0.036219
35.4611,0.0330232
35.5661,0.0319579
35.6711,0.0372843
35.7761,0.0415453
35.8811,0.0372843
35.9861,0.036219
36.0911,0.02024
36.1961,0.0276969
36.3011,0.0340885
36.4061,0.0340885
36.5111,0.0287621
36.6161,0.0319579
36.7211,0.0532632
36.8261,0.0628506
36.9311,0.056459
37.0361,0.04048
37.1411,-0.00213053
37.2461,-0.0468716
37.3511,0.0308927
37.4561,0.04048
37.5611,0.0319579
37.6661,0.0330232
37.7711,0.0458064
37.8761,0.0468716
37.9811,0.0298274
38.0861,0.306796
38.1911,0.0266316
38.2961,0.036219
38.4011,0.0319579
38.5061,0.0276969
38.6111,0.04048
38.7161,0.0266316
38.8211,0.0319579
38.9261,0.0308927
39.0311,0.0287621
39.1361,0.0447411
39.2411,0.0298274
39.3461,0.0117179
39.4511,0.0298274
39.5561,0.0319579
39.6611,0.0255663
39.7871,0.00106526
39.8921,0.02024
39.9971,0.0308927
40.1021,0.0308927
40.2071,0.0308927
40.3121,0.036219
40.4171,0.0383495
40.5221,0.0671117
40.6271,0.0458064
40.7321,0.0276969
40.8371,0.0436758
40.9421,0.0330232
41.0471,0.0351537
41.1521,0.0191748
41.2571,0.00426106
41.3621,0.0255663
41.4671,0.0287621
41.5721,0.0383495
41.6771,0.0330232
41.7821,0.036219
41.8871,0.0798948
41.9921,0.0458064
42.0971,0.0436758
42.2021,0.0479369
42.3071,0.0213053
42.4121,0.0127832
42.5171,0.0330232
42.6221,0.0340885
42.7271,0.0298274
42.8321,0.0490022
42.9371,0.0340885
43.0421,0.0308927
43.1471,0.0319579
43.2521,0.0340885
43.3571,0.0340885
43.4621,0.0383495
43.5671,0.0372843
43.6721,-0.0138484
43.7771,0.056459
43.8821,0.0298274
43.9871,0.0458064
44.0921,0.0117179
44.1971,0.0298274
44.3021,0.036219
44.4071,0.0394148
44.5121,0.0308927
44.6171,0.0255663
44.7221,0.0330232
44.8271,0.0298274
44.9321,0.0543285
45.0371,0.0340885
45.1421,0.0255663
45.2471,0.0426106
45.3521,0.0330232
45.4571,0.0415453
45.5621,0.0308927
45.6671,0.0319579
45.7721,0.04048
45.8771,0.0330232
45.9821,0.0372843
46.0871,0.036219
46.1921,0.0394148
46.2971,0.0255663
46.4021,0.0372843
46.5071,0.02024
46.6121,0.0543285
46.7171,0.0319579
46.8221,0.0543285
46.9271,0.0490022
47.0321,0.0213053
47.1371,0.0234358
47.2421,0.036219
47.3471,0.0340885
47.4521,0.0458064
47.5571,0.0287621
47.6621,0.0330232
47.7671,0.0447411
47.8721,0.0372843
47.9771,0.0383495
48.0821,0.0245011
48.1871,0.0255663
48.2921,0.0511327
48.3971,0.0266316
48.5021,0.0340885
48.6071,0.036219
48.7121,0.036219
48.8171,0.0319579
48.9221,0.0351537
49.0271,0.0415453
49.1321,0.0319579
49.2371,0.0383495
49.3421,0.0447411
49.4471,0.0330232
49.5521,0.0245011
49.6571,0.0319579
49.7621,0.0319579
49.8671,0.0308927
49.9721,0.0330232
50.0771,0.0415453
50.1821,0.0266316
50.2871,0.0213053
50.3921,0.0426106
50.4971,0.04048
50.6021,0.0415453
50.7071,0.02024
50.8121,0.0223706
50.9171,0.0543285
51.0221,0.0543285
51.1271,0.0607201
51.2321,0.0543285
51.3371,0.0458064
51.4421,0.04048
51.5471,0.0383495
51.6521,0.0351537
51.7571,0.0372843
51.8621,0.0468716
51.9671,0.0511327
52.0721,0.02024
52.1771,0.0436758
52.2821,0.0308927
52.3871,0.0298274
52.4921,0.0308927
52.5971,0.0308927
52.7021,0.015979
52.8071,0.04048
52.9121,0.0649811
53.0171,0.0575243
53.1221,0.0276969
53.2271,0.0223706
53.3321,-0.0468716
53.4371,0.0266316
53.5421,0.0234358
53.6471,0.0372843
53.7521,0.0223706
53.8571,0.0138484
53.9621,0.118244
54.0671,0.218379
54.1721,0.250337
54.2771,0.126766
54.3821,0.00958738
54.4871,0.0575243
54.5921,-0.0330232
54.6971,0.00213053
54.8021,-0.00958738
54.9071,0.0266316
55.0121,0.0213053
55.1171,0.0820254
55.2221,0.0372843
55.3271,0.00426106
55.4321,0.0298274
55.5371,-0.00532632
55.6421,-0.0213053
55.7471,0.0149137
55.8521,0.0234358
55.9571,0.0298274
56.0621,0.0255663
56.1671,0.0276969
56.2721,0.0426106
56.3771,0.04048
56.4821,0.0245011
56.5871,0.056459
56.6921,0.0234358
56.7971,0.0117179
56.9021,0.036219
57.0071,0.0383495
57.1121,0.0436758
57.2171,0.0436758
57.3221,0.04048
57.4271,0.0447411
57.5321,0.0319579
57.6371,0.036219
57.7421,0.0415453
57.8471,0.0234358
57.9521,0.0394148
58.0571,0.02024
58.1621,0.0308927
58.2671,0.04048
58.3721,0.0266316
58.4771,0.0340885
58.5821,0.0383495
58.6871,0.00639159
58.7921,0.0234358
58.8971,0.00319579
59.0021,0.00532632
59.1071,0.00106526
59.2121,0.036219
59.3171,0.0330232
59.4221,0.04048
59.5271,0.0553938
59.6321,0.0298274
59.7371,0.0788296
59.8421,0.0703075
59.9471,0.0223706
60.0521,-0.00958738
60.1571,0.0255663
60.2621,0.0351537
60.3671,0.0372843
60.4721,0.04048
60.5771,0.036219
60.6821,0.0351537
60.7871,0.0468716
60.8921,0.0372843
60.9971,0.0383495
61.1021,0.00319579
61.2071,0.0170442
61.3121,0.0266316
61.4171,0.0692422
61.5221,0.0287621
61.6271,0.036219
61.7321,0.0340885
61.8371,0.0532632
61.9421,0.04048
62.0471,0.0426106
62.1521,0.0532632
62.2571,0.0585895
62.3621,0.02024
62.4671,0.0617853
62.5721,-0.0170442
62.6771,0.00426106
62.7821,0.0308927
62.8871,0.0319579
62.9921,0.0319579
63.0971,0.0351537
63.2021,0.0340885
63.3071,0.04048
63.4121,0.0319579
63.5171,0.0330232
63.6221,0.0319579
63.7271,0.0468716
63.8321,0.0351537
63.9371,0.0298274
64.0421,0.0340885
64.1471,0.0298274
64.2521,0.0351537
64.3571,0.0394148
64.4621,0.0340885
64.5671,0.0415453
64.6721,0.04048
64.7771,0.0500674
64.8821,0.0415453
64.9871,0.052198
65.0921,0.0468716
65.1971,0.036219
65.3021,0.036219
65.4071,0.0372843
65.5121,0.0383495
65.6171,0.0447411
65.7221,0.0298274
65.8271,0.036219
65.9321,0.0298274
66.0371,0.0394148
66.1421,0.0276969
66.2471,0.0170442
66.3521,-0.00639159
66.4572,0.0415453
66.5621,0.0351537
66.6671,0.0255663
66.7721,0.0468716
66.8771,0.0298274
66.9821,0.0468716
67.0871,0.0287621
67.1921,-0.901214
67.2971,0.0426106
67.4021,0.0372843
67.5071,0.0223706
67.6121,0.0308927
67.7171,0.0287621
67.8221,0.0245011
67.9271,0.0607201
68.0321,0.0447411
68.1371,0.0436758
68.2421,0.0692422
68.3471,0.0703075
68.4521,0.0213053
68.5571,0.136354
68.6621,0.0117179
68.7671,0.0276969
68.8721,0.0394148
68.9771,0.0181095
69.0821,0.0276969
69.1871,0.04048
69.2921,-0.00319579
69.3971,0.00213053
69.5021,0.0798948
69.6071,0.0511327
69.7121,0.00639159
69.8171,0.0106526
69.9221,-0.00426106
70.0271,-0.0117179
70.1321,0.00213053
70.2371,0.0308927
70.3421,0.0372843
70.4471,-0.015979
70.5521,0.0308927
70.6571,0.0245011
70.7621,0.0287621
70.8671,0.0319579
70.9721,-0.0106526
71.0771,-0.00852212
71.1821,0.00106526
71.2871,0.00106526
71.3921,0.0458064
71.4971,0.0106526
71.6021,0.0298274
71.7071,0.0436758
71.8121,0.135289
71.9171,0.0319579
72.0221,0.0149137
72.1271,0.0276969
72.2321,0.0745685
72.3371,0.0181095
72.4421,0.0319579
72.5471,-0.0532632
72.6521,0.0756338
72.7571,-0.0830906
72.8621,0.103331
72.9671,-0.0820254
73.0721,0.105461
73.1771,0.189617
73.2821,0.109722
73.3871,-0.0745685
73.4921,-0.052198
73.5971,0.169377
73.7021,0.00745685
73.8071,0.116114
73.9121,0.206661
74.0171,0.112918
74.1221,0.0756338
74.2271,0.142745
74.3321,0.0511327
74.4371,0.0266316
74.5421,0.0969391
74.6471,0.0905475
74.7521,0.105461
74.8571,0.0266316
74.9621,0.0181095
75.0671,-0.0990696
75.1721,0.0894822
75.2771,-0.0181095
75.3821,-0.00852212
75.4871,-0.04048
75.5921,0.0383495
75.6971,-0.0383495
75.8021,0.0862864
75.9071,0.0852212
76.0121,-0.0575243
76.1171,-0.0223706
76.2221,0.0106526
76.3271,0.00852212
76.4321,-0.0170442
76.5371,0.0532632
76.6421,0.0170442
76.7471,0.0543285
76.8521,0.0798948
76.9571,0.0394148
77.0621,-0.00426106
77.1671,-0.164051
77.2721,0.076699
77.3771,0.0905475
77.4821,0.0820254
77.5871,0.0543285
77.6921,0.0479369
77.7971,0.0575243
77.9021,0.0692422
78.0071,0.0479369
78.1121,0.376038
78.2171,0.0436758
78.3221,0.133158
78.4271,0.0415453
78.5321,-0.0490022
78.6371,0.149137
78.7421,-0.0127832
78.8471,0.217314
78.9521,0.0543285
79.0571,0.0426106
79.1621,0.0788296
79.2671,0.157659
79.3721,0.0884169
79.4771,0.246076
79.5821,0.04048
79.6871,-0.115049
79.7921,0.108657
79.8971,0.072438
80.0021,-0.607201
80.1071,0.092678
80.2121,0.177899
80.3171,-0.0308927
80.4221,-0.0149137
80.5271,-0.152333
80.6321,-0.0894822
80.7371,0.076699
80.8421,0.0330232
80.9471,0.0213053
81.0521,0.0585895
81.1571,0.127832
81.2621,-0.0191748
81.3671,-0.0671117
81.4721,0.0170442
81.5771,0.015979
81.6821,0.252468
81.7871,0.0607201
81.8921,-0.0490022
81.9971,0.0692422
82.1021,0.0266316
82.2071,-0.0245011
82.3121,-0.0298274
82.4171,0.108657
82.5221,-0.0447411
82.6271,-0.0553938
82.7321,-0.0383495
82.8371,0.092678
82.9421,-0.0213053
83.0471,0.0937433
83.1521,0.0735032
83.2571,0.0500674
83.3621,0.0777643
83.4671,0.0340885
83.5721,0.0660464
83.6771,-0.00958738
83.7821,0.0649811
83.8871,0.0319579
83.9921,0.0234358
84.0971,0.0330232
84.2021,0.0181095
84.3071,0.0266316
84.4121,0.036219
84.5171,0.0191748
84.6221,0.0223706
84.7271,0.0756338
84.8321,0.0511327
84.9371,-0.0458064
85.0421,-0.0980043
85.1471,-0.00958738
85.2521,0.076699
85.3571,0.0234358
85.4621,0.076699
85.5671,0.0245011
85.6721,-0.0862864
85.7771,-0.14168
85.8821,0.28336
85.9871,0.0948085
86.0921,0.0820254
86.1971,-0.0905475
86.3021,0.203466
86.4071,-0.00639159
86.5121,0.132093
86.6171,0.0532632
86.7221,0.0958738
86.8271,0.00213053
86.9321,0.0617853
87.0371,0.0298274
87.1421,-0.0255663
87.2471,0.015979
87.3521,-0.00958738
87.4571,0.0245011
87.5621,-0.0713727
87.6671,0.0149137
87.7721,0.0298274
87.8771,0.0298274
87.9821,0.0308927
88.0871,0.0308927
88.1921,0.0319579
88.2971,0.0319579
88.4021,0.0319579
88.5071,0.0319579
88.6121,0.0319579
88.7171,0.0330232
88.8221,0.0330232
88.9271,0.0330232
89.0321,0.0330232
89.1371,0.0340885
89.2421,0.0330232
89.3471,0.0319579
89.4521,0.0330232
89.5571,0.0340885
89.6621,0.0340885
89.7671,0.0330232
89.8721,0.0330232
89.9771,0.0330232
90.0821,0.0330232
90.1871,0.0330232
90.2921,0.0340885
90.3971,0.0330232
90.5021,0.0330232
90.6071,0.0319579
90.7121,0.0330232
90.8171,0.0330232
90.9221,0.0340885
91.0271,0.0340885
91.1321,0.0319579
91.2371,0.0330232
91.3421,0.0340885
91.4471,0.0330232
91.5521,0.0340885
91.6571,0.0340885
91.7621,0.0330232
91.8671,0.0330232
91.9721,0.0330232
92.0771,0.0340885
92.1821,0.0330232
92.2871,0.0340885
92.3921,0.0340885
92.4971,0.0340885
92.6021,0.0330232
92.7071,0.0330232
92.8121,0.0340885
92.9171,0.0330232
93.0221,0.0340885
93.1271,0.0330232
93.2321,0.0330232
93.3371,0.0330232
93.4421,0.0330232
93.5471,0.0340885
93.6521,0.0330232
93.7571,0.0340885
93.8621,0.0340885
93.9671,0.0330232
94.0721,0.0340885
94.1771,0.0330232
94.2821,0.0330232
94.3871,0.0340885
94.4921,0.0340885
94.5971,0.0340885
94.7021,0.0340885
94.8071,0.0340885
94.9121,0.0340885
95.0171,0.0330232
95.1221,0.0340885
95.2271,0.0330232
95.3321,0.0340885
95.4371,-0.0649811
95.5421,0.0458064
95.6471,0.0287621
95.7521,0.0138484
95.8571,0.0276969
95.9621,0.0170442
96.0671,0.0639159
96.1721,0.0415453
96.2771,-0.00213053
96.3821,0.0298274
96.4871,0.0330232
96.5921,0.0308927
96.6971,0.0319579
96.8021,0.02024
96.9071,0.0255663
97.0121,0.0245011
97.1171,0.0745685
97.2221,0.00852212
97.3271,0.0287621
97.4321,0.0319579
97.5371,0.0330232
97.6421,0.129962
97.7471,0.232228
97.8521,0.233293
97.9571,0.116114
98.0621,-0.00426106
98.1671,0.100135
98.2721,0.0223706
98.3771,0.036219
98.4821,0.0447411
98.5871,0.0287621
98.6921,0.0298274
98.7971,0.0287621
98.9021,0.036219
99.0071,0.0106526
99.1121,0.0575243
99.2171,0.0394148
99.3221,0.0447411
99.4271,0.0649811
99.5321,0.0351537
99.6371,0.0905475
99.7421,0.0841559
99.8471,0.0756338
99.9521,0.0575243
100.057,0.0298274
100.162,0.0340885
100.267,0.0383495
100.372,0.0340885
100.477,0.0319579
100.582,0.0181095
100.687,-0.00106526
100.792,0.00958738
100.897,0.0266316
101.002,0.0436758
101.107,0.0287621
101.212,0.0340885
101.317,0.0383495
101.422,0.0287621
101.527,0.0394148
101.632,0.0308927
101.737,0.0319579
101.842,0.0308927
101.947,0.0287621
102.052,0.0319579
102.157,0.0415453
102.262,0.0245011
102.367,0.0255663
102.472,-0.0245011
102.577,-0.0181095
102.682,0.0745685
102.787,0.0170442
102.892,0.0649811
102.997,0.0692422
103.102,0.0575243
103.207,0.0458064
103.312,-0.00958738
103.417,-0.0298274
103.522,-0.00958738
103.627,0.191748
103.732,-0.00213053
103.837,0.0745685
103.942,0.0703075
104.047,0.0543285
104.152,0.0862864
104.257,0.036219
104.362,0.0372843
104.467,0.0266316
104.572,0.0255663
104.677,0.00319579
104.782,-0.0308927
104.887,0.0255663
104.992,0.0713727
105.097,0.0809601
105.202,0.0181095
105.307,-0.0340885
105.412,0.0308927
105.517,-0.0319579
105.622,-0.185356
105.727,-0.00745685
105.832,0.052198
105.937,0.165116
106.042,0.237554
106.147,-0.00639159
106.252,0.0713727
106.357,0.0575243
106.462,0.072438
106.567,0.00426106
106.672,0.052198
106.777,-0.0319579
106.882,0.155529
106.987,0.015979
107.092,0.052198
107.197,0.0127832
107.302,0.0660464
107.407,-0.00852212
107.512,0.00745685
107.617,0.0223706
107.722,0.0191748
107.827,0.0394148
107.932,0.00319579
108.037,0.00213053
108.142,0.0468716
108.247,0.0255663
108.352,0.0447411
108.457,0.0713727
108.562,0.015979
108.667,0.0490022
108.772,0.0266316
108.877,0.0383495
108.982,0.0308927
109.087,0.0415453
109.192,0.0681769
109.297,0.0170442
109.402,-0.0596548
109.507,-0.0820254
109.612,0.128897
109.717,-0.00852212
109.822,0.0372843
109.927,0.0276969
110.032,-0.0308927
110.137,0.0266316
110.242,0.0596548
110.347,0.0862864
110.452,0.0308927
110.557,-0.036219
110.662,0.0490022
110.767,-0.0319579
110.872,0.00639159
110.977,0.0639159
111.082,0.0713727
111.187,0.0447411
111.292,0.0458064
111.397,0.0873517
111.502,0.0649811
111.607,-0.00639159
111.712,0.0287621
111.817,-0.0138484
111.922,0.0511327
112.027,0.0372843
112.132,0
112.237,0.0234358
112.342,0.04048
112.447,0.0372843
112.552,-0.0500674
112.657,0.0394148
112.762,-0.0127832
112.867,-0.0191748
112.972,0.0660464
113.077,0.00319579
113.182,0.0756338
113.287,0.0245011
113.392,0.00319579
113.497,0.0266316
113.602,-0.00426106
113.707,-0.0852212
113.812,0.00532632
113.917,0.0138484
114.022,0.036219
114.127,0.0319579
114.232,0.0340885
114.337,0.0340885
114.442,0.0330232
114.547,0.0351537
114.652,0.0340885
114.757,0.0372843
114.862,0.0319579
114.967,-0.02024
115.072,0.00639159
115.177,0.0245011
115.282,0.0596548
115.387,0.015979
115.492,0.0340885
115.597,0.135289
115.702,0.0894822
115.807,0.02024
115.912,0.0671117
116.017,0.0340885
116.122,0.0383495
116.227,0.0308927
116.332,0.0543285
116.437,0.052198
116.542,0.0245011
116.647,0.0351537
116.752,0.04048
116.857,0.0703075
116.962,0.0234358
117.067,0.0266316
117.172,0.0308927
117.277,0.0191748
117.382,0.0308927
117.487,0.0351537
117.592,0.0330232
117.697,0.0340885
117.802,0.0330232
117.907,0.0330232
118.012,0.0340885
118.117,0.0340885
118.222,0.0330232
118.327,0.0340885
118.432,0.0330232
118.537,0.0340885
118.642,0.0330232
118.747,0.0340885
118.852,0.0330232
118.957,0.0330232
119.062,0.0330232
119.167,0.0340885
119.272,0.0340885
119.377,0.0340885
119.482,0.0340885
119.587,0.0330232
119.692,0.0340885
119.797,0.0340885
119.902,0.0340885
120.007,0.0340885
120.112,0.0340885
120.217,0.0351537
120.322,0.0340885
120.427,0.0340885
120.532,0.0340885
120.637,0.0330232
120.742,0.0340885
120.847,0.036219
120.952,0.0298274
121.057,0.0298274
121.162,0.0330232
121.267,0.0276969
121.372,0.0308927
121.477,0.0245011
121.582,0.0319579
121.687,0.0298274
121.792,0.015979
121.897,0.0330232
122.002,0.0788296
122.107,0.0383495
122.212,0.0415453
122.317,0.0340885
122.422,0.0255663
122.527,0.0458064
122.632,0.0426106
122.737,0.0276969
122.842,0.0266316
122.947,0.0181095
123.052,0.0394148
123.157,0.0308927
123.262,0.0308927
123.367,0.052198
123.472,0.036219
123.577,0.036219
123.682,0.0351537
123.787,0.052198
123.892,0.0223706
123.997,0.0372843
124.102,0.036219
124.207,0.0319579
124.312,0.0351537
124.417,0.0330232
124.522,0.0213053
124.627,0.0234358
124.732,0.0298274
124.837,0.22051
124.942,0.120375
125.047,0.056459
125.152,0.0798948
125.257,0.151268
125.362,-0.0170442
125.467,0.162985
125.572,0.105461
125.677,0.04048
125.782,0.0490022
125.887,-0.0138484
125.992,0.0692422
126.097,-0.140615
126.202,0.104396
126.307,0.102265
126.412,-0.0905475
126.517,0.22051
126.622,0.515588
126.727,-0.143811
126.832,-0.0319579
126.937,-0.385626
127.042,0.264186
127.147,0.150202
127.252,0.110788
127.357,-0.176834
127.462,0.0798948
127.567,0.190682
127.672,-0.0830906
127.777,0.0830906
127.882,-0.128897
127.987,0.346211
128.092,0.0628506
128.197,-0.052198
128.302,-0.217314
128.407,0.306796
128.512,0.0575243
128.617,-0.201335
128.722,-0.111853
128.827,0.214118
128.932,-0.076699
129.037,0.102265
129.142,0.00532632
129.247,-0.168312
129.352,0.0330232
129.457,-0.117179
129.562,0.0191748
129.667,-0.116114
129.772,0.0330232
129.877,0.0127832
129.982,0.0351537
130.087,0.0330232
130.192,0.0330232
130.297,0.0340885
130.402,0.0330232
130.507,0.0340885
130.612,0.0340885
130.717,0.0340885
130.822,0.0330232
130.927,0.0330232
131.032,0.0340885
131.137,0.0330232
131.242,0.0330232
131.347,0.0330232
131.452,0.0330232
131.557,0.0340885
131.662,0.0330232
131.767,0.0340885
131.872,0.0340885
131.977,0.0330232
132.082,0.0340885
132.187,0.0330232
132.292,0.0340885
132.397,0.0340885
132.502,0.0340885
132.607,0.0340885
132.712,0.0330232
132.817,0.0340885
132.922,0.0351537
133.027,0.0330232
133.132,0.0330232
133.237,0.0340885
133.342,0.0340885
133.447,0.0340885
133.552,0.0340885
133.657,0.0330232
133.762,0.0330232
133.867,0.0340885
133.972,0.0351537
134.077,0.0330232
134.182,0.0330232
134.287,0.0340885
134.392,0.0330232
134.497,0.0330232
134.602,0.0340885
134.707,0.0319579
134.812,0.0340885
134.917,0.0340885
135.022,0.0330232
135.127,0.0330232
135.232,0.0340885
135.337,0.0330232
135.442,0.0340885
135.547,0.0340885
135.652,0.0340885
135.757,0.0330232
135.862,0.0330232
135.967,0.0330232
136.072,0.0340885
136.177,0.0330232
136.282,0.0330232
136.387,0.0340885
136.492,0.0330232
136.597,0.0340885
136.702,0.0330232
136.807,0.0340885
136.912,0.0340885
137.017,0.0340885
137.122,0.0340885
137.227,0.0340885
137.332,0.0330232
137.437,0.0340885
137.542,0.0340885
137.647,0.0340885
137.752,0.0340885
137.857,0.0330232
137.962,0.0330232
138.067,0.0340885
138.172,0.0340885
138.277,0.0340885
138.382,0.0340885
138.487,0.0340885
138.592,0.0340885
138.697,0.0340885
138.802,0.0330232
138.907,0.0340885
139.012,0.0330232
139.117,0.0330232
139.222,0.0340885
139.327,0.0330232
139.432,0.0330232
139.537,0.0340885
139.642,0.0340885
139.747,0.0340885
139.852,0.0340885
139.957,0.0340885
140.062,0.0330232
140.167,0.0330232
140.272,0.0340885
140.377,0.0330232
140.482,0.0340885
140.587,0.0330232
140.692,0.0340885
140.797,0.0340885
140.902,0.0330232
141.007,0.0340885
141.112,0.0330232
141.217,0.0330232
141.322,0.0340885
141.427,0.0330232
141.532,0.0330232
141.637,0.0340885
141.742,0.0340885
141.847,0.0340885
141.952,0.0340885
142.057,0.0340885
142.162,0.0330232
142.267,0.0340885
142.372,0.0340885
142.477,0.0340885
142.582,0.0340885
142.687,0.0340885
142.792,0.0330232
142.897,0.0340885
143.002,0.0330232
143.107,0.0340885
143.212,0.0340885
143.317,0.0330232
143.422,0.0330232
143.527,0.0340885
143.632,0.0340885
143.737,0.0340885
143.842,0.0340885
143.947,0.0340885
144.052,0.0340885
144.157,0.0340885
144.262,0.0330232
144.367,0.0330232
144.472,0.0340885
144.577,0.0330232
144.682,0.0340885
144.787,0.0330232
144.892,0.0340885
144.997,0.0340885
145.102,0.0340885
145.207,0.0340885
145.312,0.0330232
145.417,0.0330232
145.522,0.0330232
145.627,0.0340885
145.732,0.0340885
145.837,0.0340885
145.942,0.0340885
146.047,0.0340885
146.152,0.0330232
146.257,0.0330232
146.362,0.0340885
146.467,0.0340885
146.572,0.0340885
146.677,0.0340885
146.782,0.0330232
146.887,0.0330232
146.992,0.0340885
147.097,0.0330232
147.202,0.0330232
147.307,0.0340885
147.412,0.0330232
147.517,0.0340885
147.622,0.0340885
147.727,0.0340885
147.832,0.0340885
147.937,0.0330232
148.042,0.0340885
148.147,0.0340885
148.252,0.0340885
148.357,0.0340885
148.462,0.0330232
148.567,0.0340885
148.672,0.0330232
148.777,0.0330232
148.882,0.0330232
148.987,0.0330232
149.092,0.0340885
149.197,0.0340885
149.302,0.0330232
149.407,0.0340885
149.512,0.0340885
149.617,0.0330232
149.722,0.0330232
149.827,0.0340885
149.932,0.0330232
150.037,0.0340885
150.142,0.0340885
150.247,0.0330232
150.352,0.0330232
150.457,0.0330232
150.562,0.0340885
150.667,0.0330232
150.772,0.0340885
150.877,0.0330232
150.982,0.0340885
151.087,0.0340885
151.192,0.0340885
151.297,0.0330232
151.402,0.0340885
151.507,0.0340885
151.612,0.0340885
151.717,0.0340885
151.822,0.0330232
151.927,0.0340885
152.032,0.0340885
152.137,0.0340885
152.242,0.0340885
152.347,0.0330232
152.452,0.0340885
152.557,0.0330232
152.662,0.0340885
152.767,0.0340885
152.872,0.0340885
152.977,0.0340885
153.082,0.0330232
153.187,0.0340885
153.292,0.0330232
153.397,0.0330232
153.502,0.0340885
153.607,0.0340885
153.712,0.0340885
153.817,0.0340885
153.922,0.0330232
154.027,0.0330232
154.132,0.0340885
154.237,0.0340885
154.342,0.0340885
154.447,0.0330232
154.552,0.0340885
154.657,0.0340885
154.762,0.0330232
154.867,0.0340885
154.972,0.0330232
155.077,0.0330232
155.182,0.0340885
155.287,0.0340885
155.392,0.0340885
155.497,0.0340885
155.602,0.0340885
155.707,0.0330232
155.812,0.0330232
155.917,0.0330232
156.022,0.0340885
156.127,0.0340885
156.232,0.0330232
156.337,0.0340885
156.442,0.0340885
156.547,0.0330232
156.652,0.0340885
156.757,0.0340885
156.862,0.0340885
156.967,0.0340885
157.072,0.0340885
157.177,0.0340885
157.282,0.0340885
157.387,0.0330232
157.492,0.0330232
157.597,0.0330232
157.702,0.0330232
157.807,0.0340885
157.912,0.0340885
158.017,0.0340885
158.122,0.0340885
158.227,0.0340885
158.332,0.0330232
158.437,0.0330232
158.542,0.0340885
158.647,0.0330232
158.752,0.0340885
158.857,0.0340885
158.962,0.0330232
159.067,0.0340885
159.172,0.0340885
159.277,0.0330232
159.382,0.0330232
159.487,0.0340885
159.592,0.0340885
159.697,0.0340885
159.802,0.0330232
159.907,0.0340885
160.012,0.0330232
160.117,0.0330232
160.222,0.0340885
160.327,0.0330232
160.432,0.0340885
160.537,0.0340885
160.642,0.0340885
160.747,0.0340885
160.852,0.0330232
160.957,0.0340885
161.062,0.0340885
161.167,0.0340885
161.272,0.0330232
161.377,0.0330232
161.482,0.0330232
161.587,0.0340885
161.692,0.0340885
161.797,0.0330232
161.902,0.0330232
162.007,0.0330232
162.112,0.0340885
162.217,0.0340885
162.322,0.0340885
162.427,0.0340885
162.532,0.0340885
162.637,0.0340885
162.742,0.0340885
162.847,0.0340885
162.952,0.0330232
163.057,0.0330232
163.162,0.0340885
163.267,0.0330232
163.372,0.0340885
163.477,0.0330232
163.582,0.0330232
163.687,0.0340885
163.792,0.0340885
163.897,0.0340885
164.002,0.0340885
164.107,0.0340885
164.212,0.0330232
164.317,0.0330232
164.422,0.0340885
164.527,0.0330232
164.632,0.0330232
164.737,0.0330232
164.842,0.0340885
164.947,0.0340885
165.052,0.0340885
165.157,0.0330232
165.262,0.0340885
165.367,0.0330232
165.472,0.0340885
165.577,0.0330232
165.682,0.0340885
165.787,0.0330232
165.892,0.0340885
165.997,0.0330232
166.102,0.0340885
166.207,0.0330232
166.312,0.0330232
166.417,0.0330232
166.522,0.0330232
166.627,0.0340885
166.732,0.0330232
166.837,0.0340885
166.942,0.0340885
167.047,0.0340885
167.152,0.0340885
167.257,0.0340885
167.362,0.0340885
167.467,0.0340885
167.572,0.0340885
167.677,0.0330232
167.782,0.0340885
167.887,0.0330232
167.992,0.0340885
168.097,0.0340885
168.202,0.0340885
168.307,0.0340885
168.412,0.0340885
168.517,0.0340885
168.622,0.0340885
168.727,0.0340885
168.832,0.0340885
168.937,0.0340885
169.042,0.0340885
169.147,0.0340885
169.252,0.0340885
169.357,0.0340885
169.462,0.0340885
169.567,0.0340885
169.672,0.0330232
169.777,0.0330232
169.882,0.0330232
169.987,0.0340885
170.092,0.0340885
170.197,0.0330232
170.302,0.0330232
170.407,0.0340885
170.512,0.0340885
170.617,0.0340885
170.722,0.0340885
170.827,0.0340885
170.932,0.0340885
171.037,0.0340885
171.142,0.0330232
171.247,0.0340885
171.352,0.0330232
171.457,0.0340885
171.562,0.0330232
171.667,0.0340885
171.772,0.0340885
171.877,0.0340885
171.982,0.0340885
172.087,0.0330232
172.192,0.0340885
172.297,0.0340885
172.402,0.0330232
172.507,0.0330232
172.612,0.0330232
172.717,0.0340885
172.822,0.0330232
172.927,0.0340885
173.032,0.0330232
173.137,0.0340885
173.242,0.0340885
173.347,0.0340885
173.452,0.0330232
173.557,0.0340885
173.662,0.0330232
173.767,0.0330232
173.872,0.0340885
173.977,0.0330232
174.082,0.0340885
174.187,0.0340885
174.292,0.0330232
174.397,0.0340885
174.502,0.0330232
174.607,0.0330232
174.712,0.0330232
174.817,0.0330232
174.922,0.0340885
175.027,0.0330232
175.132,0.0330232
175.237,0.0340885
175.342,0.0340885
175.447,0.0340885
175.552,0.0330232
175.657,0.0330232
175.762,0.0340885
175.867,0.0330232
175.972,0.0340885
176.077,0.0340885
176.182,0.0340885
176.287,0.0330232
176.392,0.0340885
176.497,0.0340885
176.602,0.0340885
176.707,0.0340885
176.812,0.0330232
176.917,0.0330232
177.022,0.0340885
177.127,0.0340885
177.232,0.0671117
177.337,-0.0575243
177.442,0.124636
177.547,0.0447411
177.652,0.0383495
177.757,0.0351537
177.862,0.0351537
177.967,0.0340885
178.072,0.0340885
178.177,0.0351537
178.282,0.0330232
178.387,0.0351537
178.492,0.0340885
178.597,0.0330232
178.702,0.0340885
178.807,0.0340885
178.912,0.0330232
179.017,0.0340885
179.122,0.0340885
179.227,0.0330232
179.332,0.0340885
179.437,0.0340885
179.542,0.0340885
179.647,0.0340885
179.752,0.0340885
179.857,0.0340885
179.962,0.0351537
180.067,0.0330232
180.172,0.0340885
180.277,0.0340885
180.382,0.0330232
180.487,0.0330232
180.592,0.0340885
180.697,0.0340885
180.802,0.0340885
180.907,0.0340885
181.012,0.0340885
181.117,0.0340885
181.222,0.0340885
181.327,0.0330232
181.432,0.0330232
181.537,0.0340885
181.642,0.0330232
181.747,0.0340885
181.852,0.0340885
181.957,0.0340885
182.062,0.0330232
182.167,0.0340885
182.272,0.0330232
182.377,0.0330232
182.482,0.0330232
182.587,0.0340885
182.692,0.0340885
182.797,0.0330232
182.902,0.0340885
183.007,0.0340885
183.112,0.0340885
183.217,0.0340885
183.322,0.0330232
183.427,0.0340885
183.532,0.0340885
183.637,0.0330232
183.742,0.0330232
183.847,0.0340885
183.952,0.0330232
184.057,0.0340885
184.162,0.0340885
184.267,0.0330232
184.372,0.0340885
184.477,0.0340885
184.582,0.0340885
184.687,0.0340885
184.792,0.0340885
184.897,0.0330232
185.002,0.0340885
185.107,0.0330232
185.212,0.0330232
185.317,0.0340885
185.422,0.0340885
185.527,0.0340885
185.632,0.0330232
185.737,0.0330232
185.842,0.0340885
185.947,0.0330232
186.052,0.0340885
186.157,0.0330232
186.262,0.0340885
186.367,0.0340885
186.472,0.0340885
186.577,0.0330232
186.682,0.0340885
186.787,0.0340885
186.892,0.0340885
186.997,0.0340885
187.102,0.0330232
187.207,0.0340885
187.312,0.0340885
187.417,0.0340885
187.522,0.0330232
187.627,0.0330232
187.732,0.0340885
187.837,0.0340885
187.942,0.0340885
188.047,0.0340885
188.152,0.0330232
188.257,0.0330232
188.362,0.0330232
188.467,0.0340885
188.572,0.0340885
188.677,0.0330232
188.782,0.0330232
188.887,0.0340885
188.992,0.0340885
189.097,0.0340885
189.202,0.0340885
189.307,0.0340885
189.412,0.0330232
189.517,0.0330232
189.622,0.0330232
189.727,0.0340885
189.832,0.0340885
189.937,0.0330232
190.042,0.0330232
190.147,0.0340885
190.252,0.0340885
190.357,0.0340885
190.462,0.0340885
190.567,0.0330232
190.672,0.0340885
190.777,0.0340885
190.882,0.0330232
190.987,0.0330232
191.092,0.0340885
191.197,0.0340885
191.302,0.0340885
191.407,0.0340885
191.512,0.0330232
191.617,0.0340885
191.722,0.0330232
191.827,0.0340885
191.932,0.0340885
192.037,0.0330232
192.142,0.0340885
192.247,0.0340885
192.352,0.0340885
192.457,0.0340885
192.562,0.0330232
192.667,0.0330232
192.772,0.0351537
192.877,0.0340885
192.982,0.0340885
193.087,0.0330232
193.192,0.0340885
193.297,0.0340885
193.402,0.0330232
193.507,0.0340885
193.612,0.0340885
193.717,0.0340885
193.822,0.0340885
193.927,0.0330232
194.032,0.0330232
194.137,0.0340885
194.242,0.0340885
194.347,0.0340885
194.452,0.0340885
194.557,0.0330232
194.662,0.0340885
194.767,0.0330232
194.872,0.0340885
194.977,0.0340885
195.082,0.0330232
195.187,0.0351537
195.292,0.0330232
195.397,0.0330232
195.502,0.0340885
195.607,0.0340885
195.712,0.0340885
195.817,0.0340885
195.922,0.0340885
196.027,0.0340885
196.132,0.0340885
196.237,0.0340885
196.342,0.0340885
196.447,0.0340885
196.552,0.0351537
196.657,0.0330232
196.762,0.0340885
196.867,0.0340885
196.972,0.0330232
197.077,0.0340885
197.182,0.0340885
197.287,0.0340885
197.392,0.0340885
197.497,0.0351537
197.602,0.0340885
197.707,0.0340885
197.812,0.0340885
197.917,0.0330232
198.022,0.0340885
198.127,0.0340885
198.232,0.0330232
198.337,0.0340885
198.442,0.0340885
198.547,0.0340885
198.652,0.0340885
198.757,0.0330232
198.862,0.0330232
198.967,0.0340885
199.072,0.0330232
199.177,0.0330232
199.282,0.0340885
199.387,0.0340885
199.492,0.0330232
199.597,0.0330232
199.702,0.0340885
199.807,0.0330232
199.912,0.0330232
200.017,0.0330232
200.122,0.0340885
200.227,0.0330232
200.332,0.0330232
200.437,0.0330232
200.542,0.0330232
200.647,0.0340885
200.752,0.0340885
200.857,0.0340885
200.962,0.0340885
201.067,0.0340885
201.172,0.0340885
201.277,0.0330232
201.382,0.0340885
201.487,0.0340885
201.592,0.0340885
201.697,0.0330232
201.802,0.0340885
201.907,0.0340885
202.012,0.0330232
202.117,0.0340885
202.222,0.0330232
202.327,0.0340885
202.432,0.0330232
202.537,0.0340885
202.642,0.0340885
202.747,0.0330232
202.852,0.0330232
202.957,0.0330232
203.062,0.0330232
203.167,0.0340885
203.272,0.0340885
203.377,0.0340885
203.482,0.0340885
203.587,0.0340885
203.692,0.0330232
203.797,0.0340885
203.902,0.0330232
204.007,0.0330232
204.112,0.0330232
204.217,0.0340885
204.322,0.0330232
204.427,0.0340885
204.532,0.0330232
204.637,0.0340885
204.742,0.0340885
204.847,0.0330232
204.952,0.0340885
205.057,0.0340885
205.162,0.0340885
205.267,0.0340885
205.372,0.0330232
205.477,0.0340885
205.582,0.0330232
205.687,0.0340885
205.792,0.0340885
205.897,0.0340885
206.002,0.0340885
206.107,0.0330232
206.212,0.0340885
206.317,0.0330232
206.422,0.0340885
206.527,0.0330232
206.632,0.0330232
206.737,0.0340885
206.842,0.0330232
206.947,0.0340885
207.052,0.0330232
207.157,0.0340885
207.262,0.0340885
207.367,0.0340885
207.472,0.0330232
207.577,0.0340885
207.682,0.0340885
207.787,0.0330232
207.892,0.0340885
207.997,0.0340885
208.102,0.0340885
208.207,0.0340885
208.312,0.0330232
208.417,0.0330232
208.522,0.0340885
208.627,0.0340885
208.732,0.0330232
208.837,0.0330232
208.942,0.0340885
209.047,0.0340885
209.152,0.0340885
209.257,0.0340885
209.362,0.0330232
209.467,0.0340885
209.572,0.0330232
209.677,0.0340885
209.782,0.0330232
209.887,0.0330232
209.992,0.0330232
210.097,0.0340885
210.202,0.0340885
210.307,0.0340885
210.412,0.0340885
210.517,0.0330232
210.622,0.0340885
210.727,0.0319579
210.832,0.0340885
210.937,0.0330232
211.042,0.0330232
211.147,0.0330232
211.252,0.0340885
211.357,0.0330232
211.462,0.0330232
211.567,0.0340885
211.672,0.0330232
211.777,0.0340885
211.882,0.0330232
211.987,0.0340885
212.092,0.0340885
212.197,0.0330232
212.302,0.0340885
212.407,0.0330232
212.512,0.0330232
212.617,0.0330232
212.722,0.0340885
212.827,0.0340885
212.932,0.0340885
213.037,0.0340885
213.142,0.0330232
213.247,0.0330232
213.352,0.0330232
213.457,0.0340885
213.562,0.0340885
213.667,0.0330232
213.772,0.0330232
213.877,0.0340885
213.982,0.0330232
214.087,0.0340885
214.192,0.0340885
214.297,0.0330232
214.402,0.0340885
214.507,0.0330232
214.612,0.0330232
214.717,0.0330232
214.822,0.0340885
214.927,0.0340885
215.032,0.0340885
215.137,0.0340885
215.242,0.0330232
215.347,0.0330232
215.452,0.0330232
215.557,0.0340885
215.662,0.0340885
215.767,0.0340885
215.872,0.0330232
215.977,0.0330232
216.082,0.0340885
216.187,0.0340885
216.292,0.0330232
216.397,0.0340885
216.502,0.0340885
216.607,0.0330232
216.712,0.0330232
216.817,0.0340885
216.922,0.0330232
217.027,0.0340885
217.132,0.0340885
217.237,0.0330232
217.342,0.0340885
217.447,0.0340885
217.552,0.0340885
217.657,0.0330232
217.762,0.0340885
217.867,0.0330232
217.972,0.0330232
218.077,0.0330232
218.182,0.0340885
218.287,0.0340885
218.392,0.0340885
218.497,0.0330232
218.602,0.0340885
218.707,0.0340885
218.812,0.0330232
218.917,0.0340885
219.022,0.0340885
219.127,0.0340885
219.232,0.0330232
219.337,0.0340885
219.442,0.0330232
219.547,0.0330232
219.652,0.0330232
219.757,0.0340885
219.862,0.0340885
219.967,0.0330232
220.072,0.0330232
220.177,0.0340885
220.282,0.0340885
220.387,0.0330232
220.492,0.0330232
220.597,0.0330232
220.702,0.0330232
220.807,0.0340885
220.912,0.0330232
221.017,0.0330232
221.122,0.0340885
221.227,0.0340885
221.332,0.0340885
221.437,0.0330232
221.542,0.0330232
221.647,0.0340885
221.752,0.0340885
221.857,0.0351537
221.962,0.0330232
222.067,0.0330232
222.172,0.036219
222.277,0.0330232
222.382,0.0330232
222.487,0.0245011
222.592,0.036219
222.697,0.0245011
222.802,0.036219
222.907,0.0340885
223.012,0.0394148
223.117,0.0330232
223.222,0.036219
223.327,0.0372843
223.432,0.0340885
223.537,0.0351537
223.642,0.0330232
223.747,0.0340885
223.852,0.0340885
223.957,0.0351537
224.062,0.036219
224.167,0.0319579
224.272,0.0415453
224.377,0.036219
224.482,0.0351537
224.587,0.0351537
224.692,0.0351537
224.797,0.0330232
224.902,0.0330232
225.007,0.0351537
225.112,0.0340885
225.217,0.0330232
225.322,0.0298274
225.427,0.0298274
225.532,0.0276969
225.637,0.0383495
225.742,0.0394148
225.847,0.0117179
225.952,0.0340885
226.057,0.0340885
226.162,0.0351537
226.267,0.0394148
226.372,0.0287621
226.477,0.0308927
226.582,0.036219
226.687,0.0308927
226.792,0.0330232
226.897,0.0298274
227.002,0.0319579
227.107,0.0351537
227.212,0.0287621
227.317,0.036219
227.422,0.0351537
227.527,0.036219
227.632,0.0351537
227.737,0.0372843
227.842,0.036219
227.947,0.0426106
228.052,0.0372843
228.157,0.0351537
228.262,0.0340885
228.367,0.0255663
228.472,0.036219
228.577,0.0245011
228.682,0.0287621
228.787,0.0351537
228.892,0.0276969
228.997,0.015979
229.102,0.0266316
229.207,0.036219
229.312,0.00639159
229.417,-0.230097
229.522,0.0553938
229.627,-0.172573
229.732,-0.00106526
229.837,-0.150202
229.942,-0.134223
230.047,0.00213053
230.152,-0.188552
230.257,-0.0117179
230.362,0.106526
230.467,0.34195
230.572,0.147006
230.677,-0.140615
230.782,-0.246076
230.887,-0.690291
230.992,-0.723315
231.097,-0.589091
231.202,-1.17286
231.307,-1.61814
231.412,-1.52972
231.517,-1.59577
231.622,-1.78432
231.727,-1.74384
231.832,-1.52439
231.937,-1.02691
232.042,-0.0788296
232.147,1.20268
232.252,0.677508
232.357,-0.470847
232.462,-0.149137
232.567,-0.353668
232.672,0.297209
232.777,1.43811
232.882,0.514523
232.987,-0.151268
233.092,-1.02905
233.197,-0.76699
233.302,-0.898018
233.407,1.38378
233.512,1.36354
233.617,1.02691
233.722,0.975782
233.827,0.558199
233.932,0.708401
234.037,0.0628506
234.142,-0.199204
234.247,-0.453803
234.352,-0.517719
234.457,-0.795753
234.562,-1.1377
234.667,-0.578439
234.772,-0.563525
234.877,-1.37739
234.982,-1.32945
235.087,-0.823449
235.192,-0.133158
235.297,0.813862
235.402,1.13238
235.507,1.07379
235.612,1.0642
235.717,1.19629
235.822,0.972586
235.927,0.635963
236.032,0.640224
236.137,0.135289
236.242,0.694552
236.347,-0.100135
236.452,-0.491087
236.557,-1.04929
236.662,-0.804275
236.767,-0.475108
236.872,0.274838
236.977,-0.386691
237.082,-0.953412
237.187,-2.01228
237.292,-2.53853
237.397,-4.04374
237.502,-3.91698
237.607,-1.877
237.712,-0.412257
237.817,0.148072
237.922,0.528371
238.027,0.392017
238.132,0.46126
238.237,0.593352
238.342,0.533697
238.447,0.495348
238.552,0.606135
238.657,0.693487
238.762,0.916127
238.867,1.47965
238.972,2.45543
239.077,3.50365
239.182,4.49968
239.287,3.58994
239.392,2.47674
239.497,0.874582
239.602,-0.329167
239.707,-0.84582
239.812,-0.975782
239.917,-0.824515
240.022,-1.22079
240.127,-1.35821
240.232,-1.28577
240.337,-0.972586
240.442,-0.882039
240.547,-0.808536
240.652,-0.578439
240.757,0.221575
240.862,0.615723
240.967,0.339819
241.072,0.46126
241.177,0.616788
241.282,1.54037
241.387,2.11881
241.492,2.22214
241.597,1.21227
241.702,-0.154463
241.807,-0.64342
241.912,-0.756338
242.017,-1.18457
242.122,-1.09829
242.227,-1.06526
242.332,-1.25275
242.437,-1.23145
242.542,-1.22186
242.647,-0.957673
242.752,0
242.857,0.214118
242.962,0.791492
243.067,0.667921
243.172,1.45089
243.277,1.87593
243.382,1.83012
243.487,0.354733
243.592,-0.259925
243.697,-0.298274
243.802,-1.13025
243.907,-0.952346
244.012,-0.413323
244.117,0.177899
244.222,0.02024
244.327,0.328101
244.432,0.140615
244.537,-0.563525
244.642,-0.976848
244.747,-0.437824
244.852,-0.414388
244.957,0.135289
245.062,1.03331
245.167,1.40082
245.272,1.18777
245.377,0.534763
245.482,0.692422
245.587,0.429302
245.692,-0.681769
245.797,-0.447411
245.902,-0.668986
246.007,-0.448476
246.112,0.129962
246.217,0.0607201
246.322,0.550742
246.427,0.389887
246.532,0.815993
246.637,1.0919
246.742,0.209857
246.847,-0.282295
246.952,-0.62318
247.057,-0.899083
247.162,-0.608266
247.267,-0.794687
247.372,-0.184291
247.477,-0.0798948
247.582,-0.385626
247.687,-0.209857
247.792,-0.684965
247.897,-0.722249
248.002,0.779774
248.107,1.94624
248.212,2.25836
248.317,1.94198
248.422,1.23251
248.527,0.46339
248.632,-0.739294
248.737,-0.790426
248.842,-0.607201
248.947,-0.353668
249.052,-1.06846
249.157,-0.907605
249.262,-1.469
249.367,-1.17179
249.472,-0.368582
249.577,0.0884169
249.682,-0.172573
249.787,-0.0500674
249.892,-0.0873517
249.997,0.235423
250.102,0.0660464
250.207,0.72438
250.312,0.60294
250.417,0.961934
250.522,0.641289
250.627,0.729706
250.732,0.245011
250.837,-0.0607201
250.942,-0.205596
251.047,0.076699
251.152,0.26312
251.257,-0.0298274
251.362,-0.476173
251.467,0.0841559
251.572,0.409062
251.677,-0.216249
251.782,-0.167247
251.887,-0.138484
251.992,-0.28336
252.097,-0.309992
252.202,-0.315318
252.307,-0.230097
252.412,-0.245011
252.517,-0.324906
252.622,-0.104396
252.727,0.0287621
252.832,0.149137
252.937,-0.0245011
253.042,-0.0671117
253.147,0.162985
253.252,-0.0703075
253.357,0.0351537
253.462,-0.0937433
253.567,-0.0585895
253.672,-0.317449
253.777,-0.305731
253.882,0.411192
253.987,0.142745
254.092,0.302535
254.197,-0.389887
254.302,0.0852212
254.407,0.697748
254.512,-0.203466
254.617,-1.01946
254.722,-0.410127
254.827,-0.299339
254.932,-0.700944
255.037,-0.646616
255.142,-1.3156
255.247,-0.349407
255.352,-0.154463
255.457,0.0703075
255.562,0.703075
255.667,0.493217
255.772,0.707336
255.877,0.670051
255.982,0.183225
256.087,0.252468
256.192,-0.0894822
256.297,-0.595483
256.402,-0.395213
256.507,-0.511327
256.612,-0.421845
256.717,-0.305731
256.822,-0.535828
256.927,0.0106526
257.032,0.056459
257.137,-0.0298274
257.242,0.153398
257.347,0.110788
257.452,0.218379
257.557,0.0798948
257.662,0.194943
257.767,0.145941
257.872,0.495348
257.977,0.345146
258.082,0.211988
258.187,0.0170442
258.292,-0.0585895
258.397,0.0884169
258.502,0.388822
258.607,0.0916127
258.712,0.401605
258.817,0.298274
258.922,0.132093
259.027,-0.405866
259.132,-0.545415
259.237,-0.460194
259.342,-0.480434
259.447,-0.305731
259.552,-0.219444
259.657,-0.015979
259.762,0.00426106
259.867,-0.0862864
259.972,-0.0426106
260.077,0.235423
260.182,0.0639159
260.287,0.0213053
260.392,0.138484
260.497,0.441019
260.602,0.358994
260.707,0.328101
260.812,0.134223
260.917,-0.245011
261.022,-0.00958738
261.127,-0.311057
261.232,0.167247
261.337,-0.368582
261.442,-0.0596548
261.547,0.076699
261.652,-0.418649
261.757,-0.535828
261.862,-0.330232
261.967,-0.456998
262.072,-0.307861
262.177,0.0617853
262.282,0.100135
262.387,0.18216
262.492,0.0575243
262.597,0.04048
262.702,-0.0628506
262.807,0.165116
262.912,1.04609
263.017,1.44343
263.122,1.47859
263.227,1.39124
263.332,1.0365
263.437,0.853277
263.542,2.67701
263.647,-1.08444
263.752,-2.48952
263.857,-2.32334
263.962,-1.73212
264.067,-1.567
264.172,-1.31986
264.277,-0.572047
264.382,-0.390952
264.487,-0.284426
264.592,0.0245011
264.697,0.0585895
264.802,-0.614658
264.907,-0.232228
265.012,0.870321
265.117,1.00135
265.222,1.31773
265.327,1.61175
265.432,1.67673
265.537,2.14544
265.642,0.861799
265.747,-0.383495
265.852,-0.954477
265.957,-0.771251
266.062,-0.949151
266.167,-1.7449
266.272,-1.76408
266.377,-1.6746
266.482,-1.2911
266.587,-0.948085
266.692,-0.619984
266.797,-0.371777
266.902,-0.334493
267.007,-0.432497
267.112,-0.134223
267.217,-0.604005
267.322,1.0855
267.427,1.78325
267.532,1.19097
267.637,0.940629
267.742,1.32306
267.847,1.20801
267.952,0.908671
268.057,1.51161
268.162,-0.0383495
268.267,-1.17073
268.372,-1.68738
268.477,-2.01122
268.582,-1.8738
268.687,-1.76408
268.792,-1.65755
268.897,-1.59577
269.002,-1.54783
269.107,-0.410127
269.212,1.05142
269.317,0.753142
269.422,0.817058
269.527,0.911866
269.632,1.45835
269.737,2.25623
269.842,2.63866
269.947,2.28712
270.052,1.45196
270.157,0.931041
270.262,0.353668
270.367,-0.708401
270.472,-1.34862
270.577,-1.40402
270.682,-1.40721
270.787,-1.76834
270.892,-1.70123
270.997,-0.994957
271.102,-0.892692
271.207,-0.304666
271.312,0.00426106
271.417,0.435693
271.522,0.76486
271.627,1.51374
271.732,2.44904
271.837,3.23308
271.942,2.76969
272.047,2.04531
272.152,1.66181
272.257,1.09722
272.362,0.291882
272.467,-0.177899
272.572,1.03118
272.677,0.905475
272.782,1.43065
272.887,1.60109
272.992,1.06846
273.097,0.539024
273.202,0.34195
273.307,2.01868
273.412,0.691357
273.517,-1.57766
273.622,-1.5734
273.727,-2.23066
273.832,-1.71295
273.937,-2.05916
274.042,-2.08792
274.147,-1.87273
274.252,-1.7971
274.357,-1.48817
274.462,-1.00987
274.567,-0.970456
274.672,-0.16192
274.777,0.40267
274.882,0.378169
274.987,0.579504
275.092,0.818123
275.197,0.981109
275.302,1.31667
275.407,1.51587
275.512,1.60748
275.617,1.37739
275.722,1.09616
275.827,0.813862
275.932,0.340885
276.037,0.0617853
276.142,-0.206661
276.247,-0.491087
276.352,-0.565655
276.457,-0.325971
276.562,-0.574178
276.667,-1.15794
276.772,-0.856473
276.877,0.748881
276.982,1.51481
277.087,2.39578
277.192,2.88261
277.297,2.21788
277.402,1.57872
277.507,1.02052
277.612,0.363255
277.717,-0.150202
277.822,-0.329167
277.927,-0.722249
278.032,-1.17818
278.137,-1.67033
278.242,-2.17527
278.347,-2.40643
278.452,-2.42454
278.557,-2.10922
278.662,-1.6192
278.767,-1.12066
278.872,-0.62531
278.977,-0.519849
279.082,-0.743555
279.187,-0.598679
279.292,0.970456
279.397,1.04822
279.502,1.18138
279.607,1.00561
279.712,1.0365
279.817,1.03331
279.922,1.13238
280.027,1.061
280.132,0.749946
280.237,0.456998
280.342,-0.0223706
280.447,-0.471912
280.552,-1.1409
280.657,-1.4903
280.762,-1.60216
280.867,-1.46474
280.972,-1.25275
281.077,-1.04822
281.182,-0.664725
281.287,-0.271642
281.392,0.144876
281.497,0.193878
281.602,0.6839
281.707,1.04609
281.812,1.29217
281.917,1.74277
282.022,2.073
282.127,1.64903
282.232,1.15049
282.337,0.902279
282.442,0.551807
282.547,-0.403735
282.652,-0.46339
282.757,0.803209
282.862,0.730771
282.967,0.762729
283.072,1.08764
283.177,0.844755
283.282,0.871386
283.387,1.42958
283.492,2.99552
283.597,0.464455
283.702,-0.970456
283.807,-1.19203
283.912,-0.847951
284.017,0.604005
284.122,0.629571
284.227,0.831972
284.332,1.33478
284.437,1.27938
284.542,0.795753
284.647,0.377104
284.752,0.398409
284.857,0.498544
284.962,0.823449
285.067,0.0660464
285.172,-0.3036
285.277,-0.0127832
285.382,0.00745685
285.487,-0.586961
285.592,-0.567786
285.697,-0.647681
285.802,-1.00241
285.907,-0.778708
286.012,-0.88417
286.117,-0.855407
286.222,-0.406931
286.327,0.194943
286.432,0.333428
286.537,0.30147
286.642,0.573112
286.747,0.661529
286.852,0.855407
286.957,0.52411
287.062,0.22051
287.167,-1.35182
287.272,-0.594418
287.377,-0.247141
287.482,-0.0170442
287.587,0.140615
287.692,0.0703075
287.797,0.117179
287.902,-0.566721
288.007,0.156594
288.112,0.0223706
288.217,-0.252468
289.934,-0.741424
290.039,-0.561394
290.144,0.731837
290.249,2.17314
290.354,1.52333
290.459,0.113983
290.564,-0.651942
290.669,-0.970456
290.774,-0.68603
290.879,0.0308927
290.984,0.575243
291.089,0.210922
291.194,-0.147006
291.299,-0.0607201
291.404,-0.289752
291.509,-0.174703
291.614,0.279099
291.719,0.396278
291.824,0.166181
291.929,0.122505
292.034,0.294013
292.139,-0.570982
292.244,-0.0287621
292.349,0.292948
292.454,-0.115049
292.559,0.329167
292.664,0.590156
292.769,-0.14168
292.874,-0.381365
292.979,0.115049
293.084,0.136354
293.189,0.32384
293.294,0.226901
293.399,0.201335
293.504,0.0852212
293.609,0.0777643
293.714,-0.0436758
293.819,0.144876
293.924,0.0585895
294.029,0.340885
294.134,0.204531
294.239,0.12144
294.344,-0.092678
294.449,-0.0639159
294.554,0.238619
294.659,0.334493
294.764,0.466586
294.869,0.16192
294.974,-0.247141
295.079,-0.106526
295.184,-0.0894822
295.289,0.00532632
295.394,0.224771
295.499,0.389887
295.604,0.197074
295.709,0.136354
295.814,0.0308927
295.919,-0.0479369
296.024,-0.125701
296.129,-0.0298274
296.234,0.343015
296.339,0.52411
296.444,0.183225
296.549,0.0223706
296.654,-0.0543285
296.759,0.00426106
296.864,0.165116
296.969,0.363255
297.074,0.407996
297.179,0.111853
297.284,0.00958738
297.389,0.0223706
297.494,0.449542
297.599,0.774447
297.704,0.559264
297.809,0.316384
297.914,-0.135289
298.019,-0.285491
298.124,0.13955
298.229,0.294013
298.334,0.324906
298.439,0.674312
298.544,0.539024
298.649,0.453803
298.754,0.356864
298.859,0.152333
298.964,0.0255663
299.069,0.148072
299.174,0.279099
299.279,0.415453
299.384,0.392017
299.489,0.373908
299.594,0.0713727
299.699,0.0490022
299.804,0.405866
299.909,0.516653
300.014,0.590156
300.119,0.536893
300.224,-0.00426106
300.329,-0.201335
300.434,0.307861
300.539,0.555003
300.644,0.664725
300.749,0.357929
300.854,0.5827
300.959,0.331297
301.064,0.117179
301.169,0.109722
301.274,0.288687
301.379,0.485761
301.484,0.642354
301.589,0.616788
301.694,0.296144
301.799,-0.015979
301.904,0.346211
302.009,0.471912
302.114,0.488956
302.219,0.574178
302.324,0.447411
302.429,0.3036
302.534,0.274838
302.639,0.255663
302.744,0.482565
302.849,0.541154
302.954,0.518784
303.059,0.671117
303.164,0.330232
303.269,0.370712
303.374,0.203466
303.479,0.224771
303.584,0.546481
303.689,0.753142
303.794,0.514523
303.899,0.388822
304.004,0.650877
304.109,0.317449
304.214,0.116114
304.319,0.487891
304.424,0.586961
304.529,0.508131
304.634,0.495348
304.739,0.557133
304.844,0.533697
304.949,0.464455
305.054,0.498544
305.159,0.519849
305.264,0.452737
305.369,0.471912
305.474,0.494283
305.579,0.532632
305.684,0.62318
305.789,0.736098
305.894,0.316384
305.999,0.38456
306.104,0.454868
306.209,0.393083
306.314,0.697748
306.419,0.610397
306.524,0.32384
306.629,0.621049
306.734,0.850081
306.839,0.474043
306.944,0.464455
307.049,0.252468
307.154,0.942759
307.259,-nan
